sep=,
DeviceTag:,chest
FirmwareVersion:,3.0.0
AppVersion:,2023.6.0
SyncStatus:,Synced
OutputRate:,60Hz
FilterProfile:,General
Measurement Mode:,Inertial data Mode - Rate Quantities(with mag)
StartTime: ,2024-12-16_16:26:02_320 CET
© Movella Technologies B. V. 2005-2024

PacketCounter,SampleTimeFine,Acc_X,Acc_Y,Acc_Z,Gyr_X,Gyr_Y,Gyr_Z,Mag_X,Mag_Y,Mag_Z
1,1006779689,9.532619,-0.627919,2.684871,1.891773,-3.979868,-1.240884,-0.698486,-0.314453,0.213135
2,1006796356,9.542601,-0.657002,2.703978,2.222023,-3.709065,-1.121977,-0.699463,-0.314941,0.215576
3,1006813023,9.497057,-0.676874,2.730767,2.285581,-3.264620,-1.072775,-0.697510,-0.314453,0.218018
4,1006829690,9.482819,-0.688398,2.702495,2.345617,-3.195338,-1.170936,-0.697998,-0.316895,0.218506
5,1006846357,9.475137,-0.698820,2.664641,2.292369,-2.988797,-1.344603,-0.698486,-0.314453,0.214111
6,1006863024,9.530807,-0.617096,2.747769,0.890714,-3.734050,-1.109670,-0.697998,-0.313965,0.217529
7,1006879691,9.538636,-0.650699,2.657090,1.189268,-3.047232,-0.670195,-0.700439,-0.316895,0.217041
8,1006896358,9.492779,-0.662971,2.655156,1.289952,-2.169216,-1.100091,-0.697998,-0.315430,0.217529
9,1006913025,9.572003,-0.665534,2.482640,2.580985,-2.226537,-0.864326,-0.695557,-0.315918,0.218018
10,1006929692,9.429924,-0.682823,2.719238,3.139048,-2.374579,-0.828174,-0.701172,-0.321289,0.220459
11,1006946359,9.535176,-0.631799,2.755300,2.709215,-3.044261,-0.744203,-0.699951,-0.318848,0.216064
12,1006963026,9.513464,-0.604501,2.672910,2.849547,-2.235348,-0.510115,-0.698242,-0.314941,0.220459
13,1006979693,9.435506,-0.642531,2.743404,1.706197,-3.236959,-0.447710,-0.697998,-0.318848,0.217041
14,1006996360,9.515183,-0.634411,2.725331,1.108780,-3.478167,-0.385010,-0.699951,-0.317383,0.217529
15,1007013027,9.531624,-0.624395,2.642920,2.114617,-2.831048,-0.748582,-0.698242,-0.315918,0.223877
16,1007029694,9.527540,-0.636183,2.631320,2.797477,-2.860785,-1.046176,-0.695068,-0.314941,0.219482
17,1007046361,9.530540,-0.635884,2.659949,2.506465,-2.397067,-0.830671,-0.698730,-0.316406,0.222900
18,1007063028,9.509185,-0.648282,2.608704,2.386918,-1.792415,-0.668620,-0.697754,-0.318359,0.221924
19,1007079695,9.494438,-0.681515,2.615792,2.490419,-2.029294,-0.729270,-0.697754,-0.315430,0.226318
20,1007096362,9.490824,-0.679271,2.653952,2.478266,-2.562807,-1.025597,-0.698242,-0.316406,0.225342
21,1007113029,9.500399,-0.656895,2.689355,2.143879,-3.426019,-0.956583,-0.695801,-0.315430,0.222412
22,1007129696,9.537538,-0.662419,2.550066,2.586659,-3.426813,-0.955059,-0.696289,-0.314453,0.223389
23,1007146363,9.441042,-0.644280,2.755355,2.593446,-4.816942,-1.141392,-0.698242,-0.316895,0.224365
24,1007163030,9.612671,-0.658331,2.605186,2.385125,-3.423996,-1.176852,-0.699707,-0.318848,0.225830
25,1007179697,9.543859,-0.653605,2.530120,2.915782,-1.837955,-1.115100,-0.697754,-0.317383,0.227783
26,1007196364,9.417459,-0.696133,2.634593,2.700724,-3.391941,-1.055256,-0.698242,-0.318359,0.227295
27,1007213031,9.480314,-0.656992,2.667477,2.211612,-4.753192,-1.044896,-0.696777,-0.317383,0.231689
28,1007229698,9.533195,-0.627612,2.610460,2.344862,-4.405872,-0.990994,-0.695312,-0.319336,0.227783
29,1007246365,9.554652,-0.633334,2.601414,2.526315,-4.679197,-1.190274,-0.699707,-0.317383,0.225830
30,1007263032,9.578390,-0.622245,2.610085,2.174410,-4.277795,-1.269609,-0.698730,-0.317383,0.227295
31,1007279699,9.545168,-0.624069,2.617195,1.921202,-3.907435,-1.179580,-0.692871,-0.316406,0.229248
32,1007296366,9.543447,-0.641965,2.636817,1.698743,-3.310813,-1.227566,-0.697266,-0.315918,0.230713
33,1007313033,9.493409,-0.641459,2.556445,2.206541,-4.387097,-1.653313,-0.696777,-0.318359,0.230713
34,1007329700,9.538169,-0.635636,2.577816,1.986848,-4.963396,-1.758837,-0.695801,-0.317383,0.234131
35,1007346367,9.547120,-0.645590,2.583416,1.826871,-4.559996,-1.608554,-0.693848,-0.316895,0.231201
36,1007363034,9.544631,-0.657577,2.565061,1.837167,-4.192774,-1.514812,-0.696777,-0.318848,0.235107
37,1007379701,9.551338,-0.644471,2.559566,1.823630,-3.896562,-1.336535,-0.693359,-0.316895,0.237061
38,1007396368,9.571693,-0.634384,2.554346,1.921458,-3.419142,-1.354335,-0.692383,-0.321777,0.235596
39,1007413035,9.562569,-0.643313,2.526563,2.019261,-3.150132,-1.273207,-0.697754,-0.318848,0.236084
40,1007429702,9.546893,-0.642522,2.551039,2.122864,-3.293729,-1.340530,-0.695801,-0.319336,0.237061
41,1007446369,9.527844,-0.639428,2.562597,1.970225,-3.256438,-1.250451,-0.697266,-0.320312,0.235596
42,1007463036,9.519135,-0.632427,2.518957,1.949325,-3.612466,-1.179580,-0.693848,-0.318848,0.238525
43,1007479703,9.545501,-0.650615,2.519134,1.825961,-3.634275,-1.101717,-0.695312,-0.318848,0.239990
44,1007496370,9.553736,-0.628510,2.505198,2.146837,-3.324375,-1.168733,-0.693848,-0.321289,0.238037
45,1007513037,9.536865,-0.638527,2.494794,2.645862,-3.314514,-1.119198,-0.698242,-0.321289,0.238037
46,1007529704,9.551162,-0.608073,2.488645,3.112347,-3.203547,-1.107545,-0.694336,-0.318848,0.241455
47,1007546371,9.527590,-0.601645,2.515646,3.021690,-3.214150,-1.076937,-0.693848,-0.319824,0.239990
48,1007563038,9.496444,-0.655964,2.510406,3.027697,-3.458304,-1.224300,-0.696533,-0.320312,0.241455
49,1007579705,9.501286,-0.712688,2.479831,2.937975,-3.328178,-2.003874,-0.695068,-0.319824,0.244873
50,1007596372,9.596932,-0.641228,2.562455,1.539099,-3.888264,-1.885095,-0.697266,-0.318848,0.240479
51,1007613039,9.604784,-0.667194,2.468045,2.028250,-3.955882,-1.891331,-0.696045,-0.318848,0.246338
52,1007629706,9.623152,-0.706000,2.486889,2.775245,-3.774928,-2.424050,-0.691650,-0.321045,0.242432
53,1007646373,9.651065,-0.698458,2.366213,4.384299,-3.805228,-2.693957,-0.693604,-0.320557,0.249268
54,1007663040,9.493102,-0.708596,2.658269,4.030217,-4.850893,-2.981242,-0.691650,-0.322998,0.248779
55,1007679707,9.608295,-0.651120,2.554672,4.422667,-4.748071,-2.868789,-0.692139,-0.320068,0.247314
56,1007696374,9.598933,-0.653203,2.497812,5.364600,-3.874587,-3.118718,-0.695068,-0.323730,0.248779
57,1007713041,9.574440,-0.672470,2.545141,4.598665,-3.992623,-3.323018,-0.691162,-0.323486,0.250244
58,1007729708,9.555184,-0.592027,2.438122,4.378984,-4.068270,-2.926290,-0.688232,-0.323975,0.250732
59,1007746375,9.513564,-0.528347,2.375955,5.154609,-4.124876,-2.376808,-0.691650,-0.325439,0.251709
60,1007763042,9.489193,-0.515335,2.367210,6.079579,-5.258737,-2.397247,-0.691162,-0.324463,0.255127
61,1007779709,9.530587,-0.562503,2.444044,6.696808,-6.688759,-2.434808,-0.691162,-0.327393,0.253662
62,1007796376,9.573915,-0.593428,2.475640,7.281019,-5.704539,-2.330410,-0.690674,-0.326416,0.254639
63,1007813043,9.543703,-0.654507,2.446593,7.667541,-4.658695,-2.012454,-0.690186,-0.324951,0.260010
64,1007829710,9.576345,-0.744373,2.347683,8.718660,-4.903847,-1.848546,-0.690674,-0.325928,0.259521
65,1007846377,9.642115,-0.790794,2.203161,9.820842,-4.618420,-1.526428,-0.688477,-0.326416,0.261963
66,1007863044,9.573039,-0.777851,2.106677,11.198666,-4.619829,-1.208830,-0.691406,-0.325928,0.262939
67,1007879711,9.483355,-0.629805,2.381802,10.288568,-7.172097,-1.098952,-0.690430,-0.324951,0.263916
68,1007896378,9.569372,-0.652047,2.326859,10.897923,-5.758404,-0.850188,-0.687012,-0.322998,0.269775
69,1007913045,9.544994,-0.774678,2.229930,11.994901,-5.278012,-1.556152,-0.689941,-0.322021,0.271729
70,1007929712,9.513409,-1.000895,2.317390,11.884295,-5.846846,-2.548261,-0.688965,-0.328369,0.272217
71,1007946379,9.718145,-1.064852,2.243854,12.377300,-4.934200,-2.440854,-0.687012,-0.325684,0.276123
72,1007963046,9.716383,-1.042523,2.166923,12.284954,-4.639654,-1.708650,-0.687012,-0.326172,0.278564
73,1007979713,9.754240,-0.877187,2.134872,10.600890,-4.402287,-0.704145,-0.687988,-0.324219,0.282715
74,1007996380,9.743194,-0.758441,2.177887,9.549026,-3.107731,-0.312385,-0.686279,-0.325195,0.286133
75,1008013047,9.694963,-0.771060,2.249821,9.662530,-2.487148,-0.828315,-0.687988,-0.322266,0.285156
76,1008029714,9.668118,-0.790457,2.296496,9.766324,-2.132079,-1.556190,-0.689697,-0.322754,0.288086
77,1008046381,9.622391,-0.889727,2.389325,9.635776,-2.371391,-2.035685,-0.687256,-0.324219,0.290039
78,1008063048,9.669477,-0.850804,2.280392,8.813146,-1.426564,-2.272410,-0.687500,-0.323242,0.286133
79,1008079715,9.663349,-0.769453,2.231811,7.587001,-0.836421,-1.387863,-0.687744,-0.324707,0.292480
80,1008096382,9.676132,-0.761175,2.163397,7.973600,-1.836252,-0.785042,-0.683838,-0.323730,0.291504
81,1008113049,9.653720,-0.824816,2.149273,8.758924,-2.613969,-1.221047,-0.685303,-0.323730,0.293945
82,1008129716,9.571498,-0.792755,2.161419,8.550833,-2.911434,-1.500405,-0.683838,-0.325684,0.291992
83,1008146383,9.523971,-0.724554,2.158337,7.658998,-3.126133,-1.582865,-0.684326,-0.324219,0.297852
84,1008163050,9.498881,-0.645294,2.181368,6.369067,-4.250736,-1.550824,-0.685791,-0.324707,0.297363
85,1008179717,9.618964,-0.641609,2.185607,5.050344,-4.749017,-2.019741,-0.682861,-0.325684,0.300781
86,1008196384,9.647470,-0.647231,2.139693,4.237269,-3.357415,-2.349261,-0.683350,-0.328125,0.304688
87,1008213051,9.594295,-0.583292,2.105404,3.496063,-3.193866,-2.600471,-0.684814,-0.323730,0.304199
88,1008229718,9.435505,-0.533907,2.106269,1.659940,-5.191732,-2.691011,-0.681885,-0.327637,0.302734
89,1008246385,9.373490,-0.550483,2.062575,-1.291316,-9.125780,-2.447102,-0.680420,-0.327637,0.304199
90,1008263052,9.479135,-0.533121,2.057966,-4.294317,-11.047402,-2.426817,-0.680664,-0.330078,0.310059
91,1008279719,9.567986,-0.552616,2.163330,-6.013801,-10.649485,-2.212644,-0.680176,-0.331299,0.314941
92,1008296386,9.596577,-0.594512,2.223180,-6.679489,-10.483297,-2.481014,-0.677246,-0.332275,0.311523
93,1008313053,9.623345,-0.426050,2.185516,-9.234307,-11.264115,-2.237271,-0.679688,-0.335693,0.318359
94,1008329720,9.698854,-0.359396,1.930048,-11.907508,-11.185946,-1.945734,-0.676758,-0.338623,0.316406
95,1008346387,9.776870,-0.174715,2.015927,-15.060953,-10.201487,-1.885379,-0.675781,-0.337158,0.322266
96,1008363054,9.880482,0.030204,1.766880,-14.637815,-8.992257,-2.387260,-0.675293,-0.340088,0.318848
97,1008379721,9.726305,0.193835,2.048491,-16.170059,-9.936076,-3.302902,-0.674316,-0.339111,0.324219
98,1008396388,9.641726,0.499794,2.055342,-18.839222,-12.161547,-3.915971,-0.672363,-0.342529,0.324707
99,1008413055,9.630451,0.747450,2.043614,-19.465269,-15.006115,-4.924461,-0.672363,-0.346924,0.323242
100,1008429722,9.783053,0.897018,2.067861,-20.893394,-15.648091,-5.510432,-0.674072,-0.350342,0.326172
101,1008446389,9.947034,1.009312,1.948675,-22.839069,-14.610241,-5.645271,-0.668701,-0.351807,0.328125
102,1008463056,9.965285,1.044103,1.888106,-22.033264,-13.641356,-5.558878,-0.665283,-0.357666,0.329102
103,1008479723,9.966269,0.950533,1.869259,-18.468674,-13.276829,-5.506216,-0.667236,-0.359619,0.329102
104,1008496390,10.009259,0.797310,1.830187,-14.497922,-12.153230,-5.469151,-0.665283,-0.359619,0.330078
105,1008513057,9.981556,0.735603,1.822268,-11.396779,-10.991151,-4.738508,-0.663818,-0.364014,0.330566
106,1008529724,9.999506,0.785802,1.895348,-9.422917,-9.349601,-3.345507,-0.660889,-0.368652,0.332031
107,1008546391,10.030198,0.791271,1.908744,-7.098204,-6.834636,-1.890487,-0.659424,-0.363281,0.332031
108,1008563058,10.044476,0.679586,1.784964,-3.990139,-4.374393,-0.467329,-0.663330,-0.364258,0.334473
109,1008579725,9.990382,0.509393,1.630215,1.129386,-0.410904,0.869199,-0.660400,-0.366699,0.332031
110,1008596392,9.982187,0.525066,1.856285,5.120255,1.871475,2.073790,-0.660889,-0.366211,0.331055
111,1008613059,9.807979,0.688065,1.706825,8.651161,5.637967,3.579409,-0.661865,-0.362793,0.330078
112,1008629726,9.393384,0.880633,1.742129,11.455704,6.326795,5.441544,-0.659424,-0.360352,0.329102
113,1008646393,9.196394,1.004828,1.832643,11.955280,4.670768,6.350898,-0.664307,-0.355469,0.330078
114,1008663060,9.478656,1.080235,1.846966,12.397242,8.060969,6.857813,-0.666260,-0.355713,0.328125
115,1008679727,9.792274,1.104645,1.903990,13.626229,15.610447,6.925116,-0.663818,-0.351562,0.325195
116,1008696394,9.887030,1.053950,2.001839,14.596872,20.942947,6.904092,-0.669922,-0.346924,0.320312
117,1008713061,10.042755,0.852838,1.907533,15.114461,23.208185,6.495917,-0.671875,-0.341553,0.315430
118,1008729728,10.493506,0.545068,1.799516,17.274557,27.064342,6.215605,-0.673340,-0.341064,0.308594
119,1008746395,10.731987,0.141502,1.906267,21.307461,30.894749,6.621601,-0.677002,-0.336426,0.299316
120,1008763062,10.628897,-0.352805,2.156862,26.156708,30.972528,7.483813,-0.678955,-0.333496,0.295898
121,1008779729,10.158120,-0.851411,2.292626,29.599581,28.514055,9.266034,-0.680908,-0.329102,0.290039
122,1008796396,9.532393,-1.178700,2.200502,29.148396,27.444588,10.910456,-0.683594,-0.324707,0.282959
123,1008813063,8.571015,-1.011860,1.773991,21.579197,21.486582,11.961426,-0.686035,-0.318359,0.280518
124,1008829730,8.149153,-0.249891,1.810291,11.996440,9.759423,10.094964,-0.686035,-0.314453,0.278076
125,1008846397,8.399793,0.330759,2.022790,7.549828,8.981821,5.700794,-0.688965,-0.310547,0.276123
126,1008863064,8.643559,0.450557,2.252523,10.223825,12.528228,0.745682,-0.690918,-0.307861,0.271729
127,1008879731,9.288554,0.019427,2.562473,14.821280,15.304668,-2.529322,-0.685791,-0.307617,0.270264
128,1008896398,10.058900,-0.757128,2.539148,20.252869,18.540359,-3.877812,-0.689697,-0.307373,0.266357
129,1008913065,10.116460,-1.361414,2.465976,22.558174,11.633513,-3.676967,-0.689697,-0.307861,0.262939
130,1008929732,9.724268,-1.573879,2.635190,18.871748,0.574026,-1.542770,-0.688232,-0.305908,0.263916
131,1008946399,9.517035,-1.473603,2.756849,13.778982,-3.499325,1.545132,-0.692139,-0.305420,0.268799
132,1008963066,9.412971,-1.454131,2.976306,8.406609,-1.386403,3.975918,-0.691650,-0.303467,0.265869
133,1008979733,9.578575,-1.538885,2.986923,2.593715,2.742794,4.456130,-0.691162,-0.301025,0.264893
134,1008996400,10.128215,-1.396512,2.688451,-3.900648,4.623907,5.246090,-0.691650,-0.299561,0.261963
135,1009013067,10.304480,-1.360286,2.637654,-7.970725,0.090983,5.436879,-0.694580,-0.295654,0.262451
136,1009029734,10.233379,-1.270419,2.905721,-10.737003,-4.639833,4.290501,-0.694092,-0.294189,0.260986
137,1009046401,9.733908,-1.107452,2.824629,-9.338677,-7.655268,2.877300,-0.691650,-0.291748,0.260986
138,1009063068,9.091633,-1.128515,3.131081,-9.986467,-14.441558,0.604377,-0.691162,-0.291748,0.262939
139,1009079735,8.861843,-1.239988,2.824401,-9.121934,-14.828399,-0.935761,-0.691650,-0.296631,0.264404
140,1009096402,8.515388,-1.557775,2.764534,-7.233200,-15.051625,-1.689851,-0.692627,-0.293701,0.266357
141,1009113069,8.528897,-1.817153,2.820835,-7.658639,-14.392085,-1.744828,-0.691162,-0.293457,0.273193
142,1009129736,8.749420,-1.894880,2.466085,-8.248436,-11.841733,-0.996168,-0.688232,-0.294922,0.270752
143,1009146403,8.980968,-1.686315,2.288196,-8.653819,-10.702451,-0.277245,-0.689697,-0.294922,0.273682
144,1009163070,9.236588,-1.493435,2.035301,-9.353202,-11.947501,-0.377006,-0.689209,-0.293457,0.273193
145,1009179737,9.272609,-1.348214,1.848435,-7.701655,-13.704483,-1.705372,-0.686523,-0.298828,0.277100
146,1009196404,9.296787,-1.149564,1.934715,-5.971609,-17.468662,-3.972982,-0.687988,-0.297852,0.281494
147,1009213071,9.560597,-1.046712,2.061622,-4.923626,-19.730198,-6.122931,-0.687988,-0.301270,0.284912
148,1009229738,9.690793,-1.128636,2.132400,-3.570123,-22.414896,-7.268464,-0.684570,-0.303223,0.293945
149,1009246405,9.795155,-1.068917,2.247124,-1.456841,-23.892860,-8.327348,-0.680420,-0.305908,0.298340
150,1009263072,9.720293,-0.900900,2.287320,0.730905,-22.532026,-9.200958,-0.680420,-0.305908,0.304688
151,1009279739,9.709157,-0.738967,2.423057,0.692024,-21.137430,-8.428489,-0.677002,-0.308838,0.309570
152,1009296406,9.787786,-0.742800,2.057016,4.409443,-16.747770,-8.537786,-0.675049,-0.309326,0.317383
153,1009313073,9.692455,-0.702187,1.908603,7.209452,-13.699136,-10.042098,-0.673096,-0.310791,0.317871
154,1009329740,9.629191,-0.596954,2.008018,6.571592,-12.681604,-10.918259,-0.670898,-0.311035,0.321289
155,1009346407,9.657043,-0.491145,2.027310,7.530160,-11.469083,-11.022590,-0.669922,-0.317871,0.327637
156,1009363074,9.768227,-0.480137,2.091194,7.663782,-9.915006,-11.149257,-0.666016,-0.314941,0.332520
157,1009379741,9.734100,-0.537501,2.038720,8.455853,-7.284910,-10.642200,-0.668701,-0.321289,0.337891
158,1009396408,9.651614,-0.630915,1.989545,13.220258,-6.620671,-8.662135,-0.662598,-0.320312,0.336914
159,1009413075,9.725619,-0.742367,1.888752,20.050303,-7.067594,-6.689613,-0.659424,-0.324463,0.341797
160,1009429742,9.917655,-0.761901,1.948331,25.178289,-7.186353,-5.215156,-0.663330,-0.323730,0.345703
161,1009446409,9.929856,-0.800453,2.226285,30.289742,-7.427413,-3.442564,-0.661377,-0.321533,0.350586
162,1009463076,9.900180,-0.758987,2.193740,35.154358,-5.604583,-1.942374,-0.661377,-0.321045,0.355957
163,1009479743,9.638080,-0.681120,1.879839,37.349518,-3.566650,-0.368569,-0.658447,-0.317139,0.358398
164,1009496410,9.404320,-0.456344,1.701910,36.888805,-5.891719,1.620543,-0.661133,-0.314697,0.365234
165,1009513077,9.404756,-0.225410,1.733062,37.073009,-7.545898,3.276399,-0.657227,-0.313232,0.373047
166,1009529744,9.658205,-0.013301,1.870383,37.851234,-6.745766,3.615296,-0.661133,-0.307861,0.378174
167,1009546411,9.909394,-0.083352,2.055037,39.173992,-5.253027,3.425845,-0.659180,-0.303711,0.384521
168,1009563078,10.068071,-0.178940,2.034589,41.854164,-3.309053,3.110534,-0.658691,-0.299316,0.387939
169,1009579745,10.075070,-0.240977,1.992553,44.316814,-1.979069,3.811984,-0.661621,-0.292969,0.393799
170,1009596412,10.109508,-0.119903,2.014897,44.080433,-1.179127,5.257113,-0.662598,-0.289551,0.396240
171,1009613079,10.138178,0.158997,2.125401,41.000732,-1.318114,7.527740,-0.658203,-0.282227,0.401611
172,1009629746,10.071857,0.217386,2.291164,38.366955,-2.349082,9.275749,-0.661621,-0.275391,0.404541
173,1009646413,9.841809,0.074642,2.472292,36.713951,-3.725386,10.067231,-0.663330,-0.270996,0.408447
174,1009663080,9.703587,-0.272041,2.243518,37.291283,-2.213051,11.006853,-0.663818,-0.262207,0.412842
175,1009679747,9.604448,-0.522973,2.263396,37.548981,0.640699,12.799475,-0.665283,-0.261230,0.415283
176,1009696414,9.711004,-0.629626,2.049617,39.226925,3.666385,15.462771,-0.666504,-0.252930,0.413818
177,1009713081,9.681093,-0.405576,2.087712,40.012486,3.113942,17.679869,-0.669434,-0.243652,0.418213
178,1009729748,9.862581,-0.327793,2.141076,40.136353,1.164554,19.535019,-0.667480,-0.233154,0.424072
179,1009746415,9.831791,-0.602741,2.215982,46.285976,1.081922,20.481680,-0.673828,-0.221924,0.424072
180,1009763082,9.723935,-1.326116,2.163948,54.628922,-2.000171,21.298161,-0.675293,-0.215088,0.427002
181,1009779749,9.590693,-1.808849,2.045353,60.552143,-7.402668,22.905085,-0.674316,-0.201416,0.434326
182,1009796416,9.608575,-1.565031,1.892863,62.864441,-8.107743,25.340218,-0.679688,-0.187744,0.442627
183,1009813083,9.383244,-0.794249,1.523061,62.728443,-4.360070,25.637753,-0.677734,-0.175049,0.445557
184,1009829750,9.107788,-0.389313,1.469304,60.899136,0.686142,21.815266,-0.680664,-0.161377,0.449463
185,1009846417,9.248547,-0.200169,1.821598,56.555717,3.880154,16.721979,-0.683105,-0.148926,0.450928
186,1009863084,9.891961,-0.237924,2.179003,50.673088,5.907735,13.367110,-0.683105,-0.141113,0.452393
187,1009879751,10.157725,-0.203822,2.271297,47.672649,6.830408,10.476585,-0.686035,-0.133789,0.452393
188,1009896418,9.890275,-0.138621,1.944860,46.682625,5.441710,5.839607,-0.687500,-0.125977,0.451904
189,1009913085,9.428376,-0.404926,1.301190,50.037827,2.129491,-0.241261,-0.689941,-0.119629,0.453857
190,1009929752,8.898088,-0.801480,1.245709,54.259151,-3.893312,-4.273383,-0.688477,-0.116699,0.457275
191,1009946419,9.178475,-1.011948,1.376424,54.557877,-9.522098,-5.231386,-0.688477,-0.113281,0.462158
192,1009963086,9.407645,-1.029154,1.501419,55.172531,-12.826345,-5.734980,-0.684082,-0.110352,0.468506
193,1009979753,9.520847,-0.589426,1.853369,54.701191,-13.297790,-7.279685,-0.684570,-0.104980,0.472900
194,1009996420,9.498796,-0.000217,2.009419,49.696640,-13.306106,-9.942588,-0.684326,-0.101318,0.485107
195,1010013087,9.479626,0.288802,1.831242,43.567745,-15.442004,-11.616463,-0.679443,-0.100342,0.486572
196,1010029754,9.305078,0.349534,1.601777,37.098984,-24.148201,-11.537607,-0.676025,-0.100342,0.493652
197,1010046421,9.329993,0.368797,1.673370,25.284142,-28.141773,-10.746622,-0.674072,-0.101562,0.502930
198,1010063088,9.541538,0.218528,1.914075,14.629494,-20.695602,-9.097245,-0.670654,-0.100098,0.510254
199,1010079755,10.008918,0.021298,2.098793,6.941259,-12.807911,-8.828641,-0.668945,-0.100098,0.512207
200,1010096422,10.342202,0.123702,2.193478,-2.070020,-9.680453,-9.023680,-0.668945,-0.106445,0.515137
201,1010113089,10.503784,0.338915,2.086257,-12.027749,-7.883994,-9.031725,-0.663574,-0.107178,0.517090
202,1010129756,10.492656,0.356470,1.876696,-16.084053,-6.739222,-9.284435,-0.665527,-0.108887,0.519043
203,1010146423,10.178311,0.630054,1.728447,-18.230562,-7.418731,-10.451766,-0.662598,-0.115479,0.520996
204,1010163090,9.840367,0.968751,1.540369,-24.264544,-10.725657,-11.963511,-0.665527,-0.121582,0.519043
205,1010179757,9.637535,1.034650,1.669480,-28.871490,-14.434022,-12.890388,-0.660889,-0.130615,0.521484
206,1010196424,9.743473,0.996935,1.645368,-33.009289,-13.970277,-14.238838,-0.658936,-0.139404,0.523926
207,1010213091,9.602709,0.604534,1.465792,-36.575829,-11.488079,-14.453152,-0.657959,-0.147705,0.524902
208,1010229758,9.519880,0.141752,1.320622,-38.207497,-9.021449,-12.728459,-0.653564,-0.152100,0.525879
209,1010246425,9.817430,-0.174632,1.311494,-37.820908,-6.851806,-9.759439,-0.655518,-0.158936,0.522949
210,1010263092,10.114229,-0.331652,1.592884,-34.544472,-3.421397,-6.914371,-0.652588,-0.168701,0.521973
211,1010279759,10.275896,-0.022265,1.514429,-31.612383,3.444107,-3.735357,-0.652588,-0.173340,0.516602
212,1010296426,10.184752,-0.067220,1.463960,-29.890430,9.050272,0.235183,-0.653076,-0.178223,0.513672
213,1010313093,9.826752,-0.324525,1.489140,-27.493183,5.923933,4.898628,-0.656982,-0.175293,0.503906
214,1010329760,9.476939,-0.361333,1.054066,-25.793514,0.865513,8.951732,-0.655029,-0.178711,0.503906
215,1010346427,8.996856,-0.088333,1.745374,-25.361181,-8.611042,11.801490,-0.657471,-0.178711,0.506348
216,1010363094,9.209060,0.035133,1.881207,-26.333302,-14.136549,14.714265,-0.658447,-0.180176,0.506836
217,1010379761,9.447910,-0.073608,1.888307,-24.233612,-15.614369,16.571896,-0.657471,-0.176270,0.507324
218,1010396428,9.366085,-0.102702,1.797353,-20.610044,-15.409242,17.213348,-0.657471,-0.172363,0.511230
219,1010413095,9.153002,-0.313840,1.556126,-17.869791,-15.124283,18.593500,-0.654541,-0.170898,0.512695
220,1010429762,9.197430,-0.575478,1.532166,-14.456254,-18.326757,20.854105,-0.656006,-0.168457,0.516113
221,1010446429,9.655036,-0.635941,1.480605,-13.565852,-22.192490,24.431915,-0.654541,-0.163086,0.520020
222,1010463096,9.726652,-0.631470,1.329845,-10.488932,-25.609060,27.370066,-0.652100,-0.158936,0.525879
223,1010479763,9.561563,-0.705232,1.350170,-7.738401,-32.312752,26.480145,-0.652588,-0.148682,0.533203
224,1010496430,9.554652,-0.967904,1.359517,-5.435054,-38.440418,23.429022,-0.651855,-0.145264,0.546387
225,1010513097,9.764232,-1.128603,1.488064,-4.749454,-42.969978,22.410381,-0.644531,-0.140625,0.553711
226,1010529764,9.827437,-1.033308,1.453233,-6.636194,-43.168724,24.029743,-0.643066,-0.136719,0.565430
227,1010546431,9.808208,-1.018736,1.203332,-6.343451,-43.048710,25.753075,-0.640381,-0.129639,0.577637
228,1010563098,9.780052,-0.759170,1.282694,-9.879704,-42.738548,25.856083,-0.633545,-0.123047,0.587402
229,1010579765,9.748613,-0.730651,0.784969,-13.947422,-38.848564,25.359224,-0.632080,-0.120117,0.595947
230,1010596432,9.647233,-0.999478,0.576414,-15.603007,-40.085583,25.396437,-0.624756,-0.113525,0.604248
231,1010613099,9.597864,-1.203324,0.551161,-15.684478,-41.528187,25.074596,-0.623047,-0.112549,0.613525
232,1010629766,9.504257,-1.158654,0.527798,-15.162666,-42.215366,25.010027,-0.615723,-0.107910,0.623779
233,1010646433,9.733480,-1.107510,0.573046,-14.882649,-41.644165,24.768465,-0.611816,-0.103027,0.631104
234,1010663100,9.819360,-1.406392,0.590830,-12.560059,-36.703056,23.551718,-0.608643,-0.101807,0.643311
235,1010679767,9.790575,-1.742248,0.762392,-7.818208,-33.676468,21.759529,-0.608154,-0.093994,0.649658
236,1010696434,10.186419,-1.859449,0.572728,-3.137503,-25.404406,19.569319,-0.600830,-0.091064,0.656494
237,1010713101,10.196084,-1.796287,0.075550,-0.370860,-17.315979,19.305370,-0.599365,-0.084961,0.660400
238,1010729768,10.154959,-1.702457,-0.146518,-4.360010,-18.749609,20.000441,-0.597412,-0.083984,0.668701
239,1010746435,10.400702,-1.678017,-0.202119,-9.156608,-19.591175,20.106037,-0.596436,-0.078125,0.670654
240,1010763102,10.094765,-1.797341,-0.233463,-9.829841,-21.545486,18.569864,-0.597168,-0.076172,0.674072
241,1010779769,9.774243,-2.214158,-0.540032,-3.504532,-24.502451,15.471314,-0.593750,-0.072021,0.677979
242,1010796436,9.514712,-2.474149,-0.606982,3.417788,-25.851036,11.484338,-0.590820,-0.070557,0.682373
243,1010813103,9.477575,-2.375023,-0.628405,6.828947,-25.279905,9.364944,-0.588379,-0.064209,0.690674
244,1010829770,9.651177,-2.388624,-1.381803,11.830631,-22.327415,9.117138,-0.585938,-0.062988,0.695557
245,1010846437,9.721910,-2.508742,-1.742076,14.107314,-21.905859,9.290628,-0.583008,-0.058594,0.702393
246,1010863104,9.571131,-2.271083,-1.437595,12.287371,-26.692957,10.299382,-0.582520,-0.054688,0.708252
247,1010879771,9.332790,-1.982692,-1.207976,5.655057,-31.597900,10.391901,-0.578369,-0.049072,0.715576
248,1010896438,9.261497,-2.128209,-1.155841,1.098104,-32.822079,9.542991,-0.570557,-0.045654,0.723389
249,1010913105,9.755104,-2.357127,-1.343273,1.786204,-30.556618,6.460909,-0.565674,-0.043945,0.728271
250,1010929772,10.013422,-2.566770,-1.687202,6.276746,-24.750441,3.976938,-0.561279,-0.042969,0.736084
251,1010946439,9.770797,-2.356785,-1.551495,13.151937,-20.932510,2.429722,-0.558350,-0.041504,0.741455
252,1010963106,9.475550,-2.147635,-1.255596,15.067032,-19.764891,1.067802,-0.555664,-0.036865,0.747070
253,1010979773,9.337646,-2.271765,-1.648386,17.571943,-18.250139,0.498866,-0.556152,-0.034424,0.750488
254,1010996440,9.157729,-2.637289,-1.949443,20.373184,-18.858080,-0.065069,-0.553223,-0.032471,0.753906
255,1011013107,9.180514,-2.930184,-2.216266,22.666462,-19.773476,-0.475194,-0.549316,-0.029297,0.757812
256,1011029774,9.322097,-2.969179,-2.371779,24.557659,-20.662048,-1.639552,-0.544434,-0.022461,0.765625
257,1011046441,9.525311,-2.745942,-2.246081,23.128525,-21.850134,-2.549062,-0.540527,-0.020508,0.765625
258,1011063108,9.647582,-2.558106,-2.114433,24.092373,-21.219864,-2.480958,-0.537109,-0.014404,0.775391
259,1011079775,9.594969,-2.329968,-1.972632,28.128275,-21.175200,-2.648992,-0.535156,-0.010010,0.779785
260,1011096442,9.370201,-2.281491,-1.968734,31.055534,-22.068817,-4.099423,-0.527832,-0.005859,0.786133
261,1011113109,9.260175,-2.391072,-1.904130,31.455389,-22.613241,-7.209143,-0.525146,-0.001953,0.791992
262,1011129776,9.477815,-2.411173,-1.959606,29.145832,-20.647633,-9.949404,-0.522705,-0.000977,0.795410
263,1011146443,9.821158,-2.516772,-2.308202,28.033031,-15.552057,-11.078435,-0.518311,0.006592,0.801270
264,1011163110,9.835752,-2.416857,-2.550029,31.511660,-12.681188,-10.698051,-0.517334,0.006592,0.802734
265,1011179777,9.546549,-2.130046,-2.117272,31.292284,-13.438222,-10.678712,-0.517334,0.011963,0.803711
266,1011196444,9.480135,-1.936456,-1.901942,27.005640,-12.864450,-12.998379,-0.517334,0.014893,0.811035
267,1011213111,9.522762,-2.055958,-2.077045,25.087667,-8.805638,-16.269793,-0.510986,0.016602,0.811035
268,1011229778,9.539876,-2.124732,-2.456410,21.066677,-6.330542,-17.889124,-0.510010,0.016113,0.813965
269,1011246445,9.381708,-2.310519,-2.755876,18.466702,-6.448256,-16.897816,-0.510498,0.014160,0.816895
270,1011263112,9.292994,-2.187536,-2.473561,14.289371,-7.833351,-16.726404,-0.508545,0.011230,0.817871
271,1011279779,9.370039,-2.105920,-2.112591,9.673592,-5.658789,-17.494768,-0.508545,0.012207,0.819336
272,1011296446,9.416420,-2.335200,-1.759243,7.622317,-3.855741,-17.768806,-0.505127,0.013184,0.822754
273,1011313113,9.435928,-2.555586,-1.672839,7.331306,-2.185740,-17.394939,-0.506592,0.005371,0.819824
274,1011329780,9.175827,-2.814745,-1.907916,7.083321,-0.564005,-16.604387,-0.507080,0.008301,0.820801
275,1011346447,9.116375,-2.867338,-2.034578,7.360463,-1.625063,-16.894678,-0.509277,0.001953,0.822266
276,1011363114,9.598088,-2.772039,-2.298328,10.685143,0.130913,-19.552269,-0.507812,-0.000488,0.820801
277,1011379781,9.613440,-2.464762,-2.534390,12.497568,2.427903,-20.124516,-0.509277,-0.001465,0.822266
278,1011396448,9.621406,-2.097868,-2.403962,13.751221,-1.074557,-18.008312,-0.509277,-0.005859,0.822266
279,1011413115,9.500450,-1.978069,-2.017140,14.185830,-4.981525,-16.395498,-0.507324,-0.006836,0.822266
280,1011429782,9.466033,-1.871979,-1.561177,14.563097,-6.950007,-18.039894,-0.505371,-0.007324,0.825195
281,1011446449,10.040056,-1.765052,-1.777353,17.919107,-0.689291,-21.249840,-0.504395,-0.007812,0.824707
282,1011463116,10.169486,-1.928782,-1.842250,21.280930,3.624113,-22.796522,-0.507812,-0.009766,0.819824
283,1011479783,10.081597,-1.909094,-1.834280,24.085629,5.322000,-22.325806,-0.508301,-0.008301,0.826172
284,1011496450,9.701012,-1.768361,-2.259675,27.035894,9.707788,-20.963575,-0.512207,-0.008545,0.819824
285,1011513117,9.169897,-1.509107,-1.831617,27.209929,9.101148,-19.702293,-0.511719,-0.008057,0.820312
286,1011529784,9.218522,-1.721236,-2.032948,29.806561,12.760098,-18.649107,-0.514160,-0.007568,0.815430
287,1011546451,9.098535,-2.373191,-1.994397,31.857765,16.168816,-16.394663,-0.518066,-0.005127,0.816406
288,1011563118,9.062459,-2.796898,-2.516479,41.477272,15.437396,-14.130634,-0.522217,-0.001709,0.811523
289,1011579785,9.329123,-2.967252,-2.332378,49.165176,11.209511,-13.199465,-0.521729,0.006104,0.810059
290,1011596452,9.810711,-2.448098,-2.339771,49.337795,11.451520,-11.368855,-0.523193,0.012451,0.809082
291,1011613119,9.944345,-1.698622,-1.974215,45.426949,7.862181,-9.659508,-0.527588,0.017334,0.806641
292,1011629786,10.259310,-1.320543,-1.610470,40.182911,3.031468,-11.762630,-0.527588,0.023193,0.806641
293,1011646453,10.734444,-1.542584,-0.973560,40.629082,0.011532,-14.224463,-0.529541,0.030518,0.809570
294,1011663120,10.763362,-1.335737,-0.288967,48.256931,-1.312650,-13.795982,-0.527832,0.034424,0.806152
295,1011679787,10.005206,-0.917847,-0.140788,55.124943,-2.457067,-10.934018,-0.529785,0.042236,0.810059
296,1011696454,9.015109,-1.245206,-0.674459,56.499207,0.052231,-10.186417,-0.524902,0.050537,0.811035
297,1011713121,8.219697,-1.845415,-1.684910,52.332439,0.260055,-9.842905,-0.524414,0.060791,0.811523
298,1011729788,8.305391,-1.702574,-1.999233,48.605862,-5.151553,-11.161895,-0.524902,0.069092,0.810059
299,1011746455,8.819460,-1.019905,-1.916391,45.642391,-9.125583,-11.185667,-0.522461,0.074707,0.811035
300,1011763122,8.783157,-0.364028,-1.239854,38.619720,-11.667794,-10.800799,-0.520996,0.083008,0.815430
301,1011779789,8.957936,-0.194013,-1.002447,32.650860,-12.535798,-11.071936,-0.517578,0.082520,0.820801
302,1011796456,8.942035,-0.297526,-0.963238,28.751535,-15.863996,-11.114664,-0.512695,0.086182,0.822266
303,1011813123,9.114491,-0.305949,-1.082148,25.368402,-19.845545,-11.572468,-0.505371,0.092529,0.830566
304,1011829790,9.411725,-0.661688,-1.371976,25.809210,-19.662388,-12.602409,-0.499512,0.092773,0.829346
305,1011846457,9.496623,-0.884329,-1.444519,26.177326,-20.140099,-13.198014,-0.500488,0.097168,0.838379
306,1011863124,9.974533,-0.769983,-1.033198,29.492027,-24.789396,-13.986217,-0.493896,0.098877,0.847168
307,1011879791,10.727500,-0.399354,-0.548460,32.783939,-28.149115,-15.161664,-0.489990,0.103760,0.851562
308,1011896458,10.651892,-0.181402,-0.630788,36.722298,-29.001646,-14.749568,-0.482666,0.106934,0.858398
309,1011913125,10.034381,-0.318087,-0.825644,37.014374,-32.020283,-15.728186,-0.475830,0.111816,0.864746
310,1011929792,9.657848,-0.377021,-1.334097,34.477928,-34.462463,-16.245903,-0.467041,0.115479,0.873535
311,1011946459,9.526999,-0.436806,-1.588080,33.160133,-35.029766,-16.045732,-0.458740,0.118164,0.879395
312,1011963126,9.681967,-0.693018,-1.492116,33.379097,-36.290680,-16.787411,-0.452393,0.123047,0.885742
313,1011979793,9.976052,-0.839511,-1.609936,36.297832,-34.677147,-17.421125,-0.442871,0.126221,0.896973
314,1011996460,9.781213,-1.021328,-1.774148,39.771053,-30.942287,-18.596878,-0.440918,0.134033,0.901855
315,1012013127,9.315425,-1.142084,-1.992950,44.980408,-28.000090,-19.309004,-0.431641,0.136719,0.907715
316,1012029794,9.182584,-1.029177,-1.918447,50.392544,-27.429007,-18.750031,-0.427734,0.146240,0.913574
317,1012046461,9.295629,-0.832888,-1.648730,50.180756,-29.648724,-17.256769,-0.419922,0.154541,0.918945
318,1012063128,9.596802,-0.660810,-1.784263,48.164883,-31.748304,-15.106406,-0.413086,0.162109,0.923828
319,1012079795,9.609174,-0.523329,-1.966273,47.297852,-31.343954,-14.087946,-0.407227,0.168701,0.928711
320,1012096462,9.803498,-0.535769,-2.147000,45.955460,-27.702467,-13.426705,-0.398438,0.178955,0.931885
321,1012113129,9.846251,-0.581129,-1.824495,47.699696,-25.509924,-12.887631,-0.392090,0.187500,0.936279
322,1012129796,10.088467,-0.702970,-2.046615,49.018341,-22.282631,-11.886711,-0.388184,0.195312,0.938721
323,1012146463,9.859541,-0.769684,-2.093089,50.441772,-20.367275,-11.406138,-0.386230,0.208740,0.945068
324,1012163130,9.644296,-0.886159,-2.144950,48.884617,-18.252626,-12.093389,-0.384766,0.216553,0.946045
325,1012179797,9.830456,-1.003315,-2.497404,46.172703,-14.324218,-12.102042,-0.380615,0.225342,0.946533
326,1012196464,10.190125,-0.957443,-2.753534,44.496910,-10.917511,-11.044704,-0.379150,0.232910,0.948975
327,1012213131,10.077400,-1.022685,-2.539947,44.185810,-8.014657,-8.090406,-0.376709,0.240723,0.951416
328,1012229798,10.021111,-1.185912,-2.182540,43.966522,-4.409501,-5.625728,-0.380127,0.249512,0.947021
329,1012246465,10.180755,-1.218222,-2.238560,44.175579,-1.471549,-2.871664,-0.373291,0.262695,0.947998
330,1012263132,10.352057,-1.373701,-2.697920,44.836601,6.150019,0.168565,-0.375977,0.268555,0.943604
331,1012279799,10.166029,-1.163604,-2.400660,49.769932,8.644125,1.934871,-0.378906,0.283203,0.943115
332,1012296466,10.122270,-0.920533,-2.036169,51.465267,9.837120,0.889045,-0.381592,0.294434,0.934814
333,1012313133,9.900236,-0.666614,-2.711647,50.918682,14.712368,-0.609396,-0.386475,0.301758,0.932373
334,1012329800,8.791641,-0.259130,-2.069821,49.074699,8.219859,-0.714780,-0.385498,0.313965,0.927490
335,1012346467,9.371224,-1.038981,-1.895235,43.201126,3.191972,-1.364436,-0.389160,0.326172,0.926514
336,1012363134,9.819806,-1.418384,-2.570093,37.321072,7.435065,-1.194134,-0.394531,0.335449,0.919434
337,1012379801,9.725179,-1.812653,-2.699579,32.880856,4.937372,-1.102605,-0.394531,0.340820,0.915039
338,1012396468,9.718205,-1.753747,-3.196962,27.756706,0.112843,-1.658286,-0.397461,0.347656,0.919434
339,1012413135,9.276305,-1.429009,-2.941991,24.658138,-8.188105,-1.827701,-0.393799,0.352539,0.914551
340,1012429802,9.672260,-1.233256,-2.559740,20.729618,-10.363365,-3.389822,-0.392334,0.356934,0.915039
341,1012446469,9.827824,-0.873627,-2.699053,16.181616,-6.315536,-5.573355,-0.391357,0.358398,0.919434
342,1012463136,9.775574,-0.726889,-2.859880,13.746087,-6.401773,-7.995024,-0.392578,0.359375,0.920898
343,1012479803,9.754081,-1.047942,-3.135516,16.450006,-8.661153,-9.458069,-0.392334,0.360840,0.919434
344,1012496470,9.788642,-1.396553,-3.451682,22.770721,-13.099805,-10.083991,-0.387451,0.364258,0.922852
345,1012513137,9.786747,-1.462122,-3.538024,30.325016,-19.257504,-10.519622,-0.385498,0.367432,0.923828
346,1012529804,9.763500,-1.283969,-3.461143,32.583538,-23.542831,-12.461899,-0.383057,0.372803,0.927246
347,1012546471,9.210106,-1.169343,-3.526402,31.192242,-25.044712,-13.184564,-0.376709,0.373779,0.929199
348,1012563138,8.925753,-1.293071,-3.045483,28.114672,-29.937365,-13.290144,-0.372070,0.377930,0.934570
349,1012579805,9.296427,-1.580482,-2.785517,25.996601,-28.710752,-13.292353,-0.365234,0.382324,0.937500
350,1012596472,9.568346,-2.265709,-2.958988,26.126593,-25.703207,-11.996206,-0.360596,0.385010,0.937988
351,1012613139,9.417176,-2.420772,-3.072350,28.783268,-24.488398,-10.078128,-0.354248,0.389893,0.938477
352,1012629806,9.125648,-1.597115,-3.211131,29.509651,-22.820866,-9.482753,-0.350342,0.395508,0.941895
353,1012646473,8.618249,-0.868883,-3.162328,30.836832,-21.179981,-9.756416,-0.344971,0.401855,0.940918
354,1012663140,8.614090,-0.830410,-3.286483,31.088198,-19.055384,-11.599489,-0.341064,0.405762,0.943848
355,1012679807,8.490945,-0.992104,-3.173794,31.929892,-18.171118,-13.611506,-0.338623,0.409424,0.943848
356,1012696474,8.397455,-1.471891,-2.869745,31.835495,-20.806763,-15.428091,-0.336670,0.413330,0.945801
357,1012713141,8.324295,-1.631742,-2.856522,32.485828,-22.602674,-17.266171,-0.330811,0.417236,0.944824
358,1012729808,8.342904,-2.305863,-2.756711,27.794670,-26.460123,-18.020107,-0.327393,0.421875,0.947754
359,1012746475,8.735578,-3.094352,-3.012369,26.572994,-28.602577,-14.193017,-0.323486,0.424805,0.950684
360,1012763142,9.409514,-3.063482,-3.435949,32.501350,-25.867992,-9.737562,-0.320557,0.433105,0.951172
361,1012779809,9.414820,-2.201767,-4.172657,39.756840,-18.483154,-12.490445,-0.317139,0.437256,0.953125
362,1012796476,8.679060,-1.208752,-4.186311,46.380398,-15.559021,-20.019363,-0.313477,0.446045,0.949951
363,1012813143,8.521746,-1.010667,-3.990631,50.905235,-15.821048,-25.601198,-0.312012,0.455322,0.944580
364,1012829810,9.047253,-1.165985,-3.883636,50.017998,-16.260080,-28.100670,-0.312012,0.461182,0.944580
365,1012846477,9.673718,-1.678804,-4.497994,49.471622,-13.055627,-27.045063,-0.312744,0.468018,0.940674
366,1012863144,9.495279,-1.904145,-4.679826,52.024643,-10.477130,-25.401382,-0.313232,0.476318,0.937744
367,1012879811,9.125336,-1.911840,-4.353458,56.750412,-7.288900,-26.051531,-0.313232,0.484619,0.932373
368,1012896478,9.048473,-1.714176,-4.245000,63.015297,-0.821861,-28.144308,-0.316406,0.494385,0.923096
369,1012913145,9.011032,-1.365487,-3.758141,61.851360,2.091177,-30.192606,-0.314697,0.505615,0.912842
370,1012929812,8.816977,-1.346834,-3.549159,60.847301,4.734030,-32.273735,-0.320068,0.514648,0.905029
371,1012946479,8.747263,-1.680270,-3.379124,57.746368,4.544924,-34.263218,-0.328613,0.523438,0.896240
372,1012963146,8.803643,-2.001229,-3.378274,52.365372,4.494335,-33.906170,-0.334961,0.530029,0.887207
373,1012979813,8.901275,-2.449233,-3.257630,45.963432,5.231380,-31.086845,-0.344727,0.531494,0.881348
374,1012996480,9.072182,-2.578482,-3.558498,41.338493,7.171227,-27.029114,-0.345459,0.537842,0.872559
375,1013013147,9.230151,-2.039861,-3.815841,41.388569,8.042396,-24.188538,-0.350830,0.544434,0.864258
376,1013029814,9.150779,-1.715005,-3.732688,43.232075,7.291521,-24.552347,-0.356445,0.546875,0.857422
377,1013046481,9.103821,-1.515576,-3.696995,43.392586,5.837180,-25.509863,-0.360840,0.553467,0.848633
378,1013063148,9.004115,-1.595609,-3.710386,41.383476,6.858057,-25.534145,-0.366699,0.555420,0.841797
379,1013079815,8.955925,-1.663440,-3.614506,40.087299,7.471649,-24.475842,-0.370850,0.562744,0.836914
380,1013096482,9.199567,-1.919854,-3.450236,39.586437,8.681971,-23.544357,-0.374268,0.562988,0.827148
381,1013113149,9.768720,-2.146528,-3.535225,41.900406,14.256361,-21.905937,-0.378418,0.567871,0.816406
382,1013129816,10.020603,-2.486429,-3.901123,47.421700,22.024757,-18.997322,-0.388184,0.574463,0.808105
383,1013146483,9.935286,-2.283054,-3.963970,52.797081,25.414381,-15.248206,-0.392334,0.581299,0.793457
384,1013163150,9.950665,-1.762118,-3.767029,50.356953,29.544680,-13.389567,-0.402100,0.589844,0.780029
385,1013179817,10.215751,-1.563149,-4.164181,45.014896,32.049637,-12.747123,-0.408691,0.595459,0.766846
386,1013196484,10.410917,-1.496366,-4.599906,47.806038,29.261213,-11.466426,-0.415283,0.597412,0.750244
387,1013213151,10.551365,-1.074579,-4.878372,54.397919,27.292511,-10.611650,-0.419434,0.605957,0.735107
388,1013229818,10.452838,-0.530933,-4.507247,56.356010,26.837357,-7.960295,-0.423828,0.612305,0.721924
389,1013246485,10.467031,-0.105320,-3.265522,59.464283,22.344408,-7.093103,-0.428955,0.621826,0.708252
390,1013263152,10.699266,-0.647741,-2.178016,58.207058,19.264761,-7.514316,-0.434570,0.627197,0.692871
391,1013279819,10.393347,-0.568006,-1.967381,57.734264,15.087755,-6.192588,-0.437744,0.633301,0.677246
392,1013296486,9.992260,-0.512054,-2.292645,49.385818,17.823317,-3.510447,-0.439209,0.638672,0.663574
393,1013313153,9.213605,-0.721537,-3.186206,36.901089,18.260601,-1.037807,-0.441406,0.644043,0.651855
394,1013329820,8.812146,-0.493081,-3.735610,23.971844,8.263091,0.078753,-0.442383,0.645020,0.646973
395,1013346487,8.767920,0.391172,-3.462480,18.925093,-8.847702,-1.455982,-0.442871,0.644287,0.647461
396,1013363154,8.921400,0.754108,-2.901045,25.083124,-19.352909,-5.475221,-0.440430,0.645508,0.642090
397,1013379821,8.870439,0.560661,-2.709340,35.465622,-18.989252,-10.016418,-0.439697,0.648438,0.638672
398,1013396488,8.690108,0.308300,-2.776634,43.175106,-13.706364,-15.505783,-0.443115,0.649658,0.634277
399,1013413155,8.415321,0.206350,-2.762894,44.637920,-9.465796,-20.106300,-0.443604,0.649658,0.629639
400,1013429822,8.266671,-0.224157,-2.762400,44.609119,-9.724026,-21.655655,-0.445068,0.651611,0.621826
401,1013446489,8.467122,-0.538174,-2.689626,44.988430,-12.280518,-21.464226,-0.447510,0.652100,0.617432
402,1013463156,8.871977,-0.707468,-2.815250,47.848396,-10.096933,-19.316599,-0.451172,0.653320,0.611572
403,1013479823,9.051920,-0.392911,-2.351945,48.477562,-10.428146,-19.035480,-0.451660,0.657715,0.604736
404,1013496490,8.734111,0.136430,-2.437220,42.956963,-8.380480,-19.919401,-0.455078,0.656250,0.598877
405,1013513157,8.916876,0.419762,-2.560076,36.046062,-8.749878,-21.040352,-0.459229,0.658691,0.593994
406,1013529824,9.509453,-0.154889,-2.576523,35.616699,-9.085829,-20.783222,-0.459229,0.656982,0.588135
407,1013546491,10.021921,-0.839037,-2.683670,44.120201,-9.781294,-20.236937,-0.462158,0.657959,0.585205
408,1013563158,9.814192,-0.959766,-2.781753,52.371040,-4.012684,-21.449905,-0.466064,0.659912,0.577881
409,1013579825,9.426310,-0.707547,-2.597795,54.508503,-0.136569,-23.660612,-0.473877,0.661621,0.571533
410,1013596492,9.206861,-0.385076,-2.825541,51.061840,2.369297,-23.523102,-0.479004,0.664551,0.561279
411,1013613159,9.135438,0.148417,-2.991840,47.846508,0.062566,-23.140909,-0.480957,0.660889,0.552490
412,1013629826,9.084990,0.258355,-2.934836,47.704288,-2.071858,-25.219803,-0.483154,0.658447,0.545166
413,1013646493,9.145055,-0.604729,-2.334478,51.638699,-4.978528,-26.756577,-0.488037,0.661377,0.535400
414,1013663160,9.536112,-1.442592,-2.114006,59.524765,-4.707301,-26.632164,-0.493896,0.659180,0.526367
415,1013679827,9.267986,-1.307953,-2.292799,62.165787,-1.200973,-25.628412,-0.496582,0.661621,0.514160
416,1013696494,8.917818,-0.559478,-2.430040,57.251194,-1.331379,-24.604626,-0.501953,0.663330,0.505859
417,1013713161,8.800414,-0.053436,-2.326659,51.588837,-1.662859,-24.182058,-0.504883,0.660889,0.499512
418,1013729828,8.919198,-0.282293,-1.950207,50.999863,-3.587265,-23.781872,-0.504639,0.659912,0.487305
419,1013746495,9.612174,-1.024870,-2.193546,58.227951,-0.537247,-22.819166,-0.509521,0.660156,0.481445
420,1013763162,9.732821,-0.949510,-2.655360,65.128616,3.910157,-21.638403,-0.515137,0.659668,0.466797
421,1013779829,9.596200,-0.321931,-2.615059,61.196789,3.872077,-21.579470,-0.515137,0.661377,0.458008
422,1013796496,9.606001,0.000109,-2.733124,51.790398,6.011181,-20.360514,-0.519775,0.661377,0.445312
423,1013813163,9.461903,-0.183891,-2.649551,45.414768,7.121934,-17.434088,-0.525146,0.662598,0.437012
424,1013829830,9.708875,-0.910882,-2.289131,45.485821,7.455002,-13.969908,-0.526611,0.658203,0.424561
425,1013846497,10.105046,-1.591058,-2.081004,49.231400,9.793830,-11.336388,-0.525879,0.661621,0.413818
426,1013863164,9.924273,-1.058435,-2.522186,55.450710,14.241336,-10.210459,-0.530029,0.664795,0.401611
427,1013879831,9.800316,-0.507283,-2.243516,57.078789,13.178197,-9.249320,-0.529541,0.665771,0.389404
428,1013896498,9.843076,-0.208190,-2.044838,54.527149,14.932932,-8.453697,-0.531738,0.667236,0.378662
429,1013913165,10.064956,-0.302418,-1.683073,50.684277,16.816748,-6.669781,-0.530273,0.667725,0.363281
430,1013929832,9.997204,-0.592518,-1.401461,47.427460,20.337999,-4.571513,-0.532959,0.672363,0.352539
431,1013946499,9.521688,-0.805589,-1.287727,38.828953,22.059496,-1.047580,-0.535889,0.671875,0.339844
432,1013963166,9.169117,-0.599651,-1.240100,27.823910,21.215868,3.759238,-0.536133,0.672363,0.330566
433,1013979833,9.335561,-0.595299,-0.968103,21.200769,19.973749,7.138699,-0.532227,0.675293,0.317871
434,1013996500,9.735996,-0.683645,-1.086384,15.380819,21.815527,6.797456,-0.535889,0.675293,0.311035
435,1014013167,10.464087,-0.367326,-1.249714,5.659541,22.601723,3.845146,-0.535400,0.676514,0.307129
436,1014029834,11.507030,-0.024538,-2.196949,0.361390,25.221811,1.939763,-0.536865,0.676514,0.296875
437,1014046501,11.763501,-0.307352,-2.811666,7.091724,17.663546,1.810391,-0.539307,0.677490,0.295410
438,1014063168,11.634423,-1.001256,-3.328584,22.812914,7.291471,2.582399,-0.537109,0.677490,0.290283
439,1014079835,11.141860,-1.350181,-3.783060,39.542259,-9.786324,3.445971,-0.537109,0.679443,0.286865
440,1014096502,10.897093,-1.031515,-4.230549,50.998943,-18.167828,2.009817,-0.537598,0.680908,0.281006
441,1014113169,10.388903,0.408806,-3.859605,50.015804,-16.987139,-1.474743,-0.536133,0.680908,0.279053
442,1014129836,9.879706,1.667667,-2.712756,39.690380,-15.872444,-4.776927,-0.536133,0.680420,0.276123
443,1014146503,9.773681,1.706209,-2.073850,28.208164,-13.407259,-7.601645,-0.536133,0.680420,0.273682
444,1014163170,9.515984,0.961776,-1.943614,22.222750,-13.010956,-11.890985,-0.540283,0.677734,0.269287
445,1014179837,9.645918,-0.126081,-2.488137,22.406618,-14.646286,-15.243741,-0.540527,0.674805,0.271729
446,1014196504,9.886465,-0.990717,-2.833714,25.877949,-17.612139,-17.088585,-0.544434,0.670410,0.273682
447,1014213171,10.125520,-0.980185,-2.870057,30.856255,-18.581347,-15.990902,-0.548340,0.666992,0.270264
448,1014229838,9.780755,-0.645150,-3.181198,39.703419,-13.810413,-15.229611,-0.549316,0.663574,0.264893
449,1014246505,9.534939,-0.770651,-2.885334,43.805698,-16.411528,-15.310081,-0.554688,0.662354,0.263428
450,1014263172,9.297433,-0.345539,-2.282724,45.552040,-19.345350,-13.045809,-0.555908,0.661377,0.258545
451,1014279839,8.628144,0.441060,-1.779671,47.755558,-22.836315,-11.544775,-0.553711,0.656494,0.257568
452,1014296506,8.151660,0.740060,-1.435802,44.266605,-27.177729,-13.252912,-0.557129,0.656982,0.257080
453,1014313173,7.921678,-0.244209,-1.528126,39.173836,-29.182636,-15.798186,-0.557129,0.650635,0.256592
454,1014329840,8.324915,-1.644087,-2.315865,38.678165,-23.145931,-15.810347,-0.558594,0.645264,0.257080
455,1014346507,8.666237,-2.136413,-2.749755,44.665012,-19.946314,-12.944712,-0.563965,0.646973,0.254639
456,1014363174,8.864369,-1.223619,-2.789430,47.655304,-16.942232,-12.864703,-0.565918,0.645508,0.250244
457,1014379841,8.612695,-0.367353,-2.444240,45.026199,-17.715397,-13.632929,-0.562988,0.640625,0.248291
458,1014396508,8.788488,-0.527466,-2.330250,42.537575,-20.483709,-12.905733,-0.569824,0.641113,0.249756
459,1014413175,9.283979,-1.139755,-2.637440,41.927906,-19.894514,-10.435362,-0.571777,0.638672,0.247803
460,1014429842,9.342204,-1.284666,-3.071758,45.522915,-15.107790,-7.489843,-0.571289,0.636475,0.244385
461,1014446509,9.075861,-1.251036,-2.818756,48.786007,-10.908096,-6.548533,-0.572510,0.635986,0.237549
462,1014463176,9.090153,-1.177498,-2.692178,48.457447,-2.890340,-7.251080,-0.573975,0.635986,0.232666
463,1014479843,9.274368,-1.729653,-3.057077,47.586788,2.762205,-4.987921,-0.572998,0.632568,0.223389
464,1014496510,9.516788,-1.940392,-3.360396,45.638489,6.674969,1.319506,-0.573242,0.633057,0.217041
465,1014513177,8.963395,-1.619175,-3.455721,45.784893,8.262548,7.017658,-0.571777,0.637451,0.204346
466,1014529844,8.660540,-1.219767,-3.247188,45.448086,8.190665,8.286586,-0.570557,0.638428,0.196533
467,1014546511,8.657521,-1.087456,-3.139147,40.045071,10.508237,6.611062,-0.567627,0.638916,0.187500
468,1014563178,8.765528,-1.167227,-3.083781,33.426975,10.872877,4.577350,-0.567139,0.637939,0.179688
469,1014579845,8.774496,-1.214994,-2.412023,30.623236,7.589063,2.768621,-0.564453,0.636475,0.175781
470,1014596512,9.052975,-1.664082,-1.926422,28.251272,10.150121,1.540090,-0.567383,0.641602,0.166992
471,1014613179,9.421410,-2.262703,-1.702335,29.407452,16.456501,2.671319,-0.566406,0.641113,0.159180
472,1014629846,9.791962,-2.640635,-1.539135,35.595856,22.915621,5.113326,-0.563232,0.641113,0.149414
473,1014646513,9.943354,-2.569504,-1.862345,43.961861,25.069118,6.417654,-0.564453,0.645020,0.133789
474,1014663180,10.477308,-1.746673,-3.044056,46.271366,29.179470,7.862690,-0.560547,0.643066,0.118896
475,1014679847,10.121616,-1.270667,-3.451811,49.454517,20.539402,10.324478,-0.561279,0.644043,0.110107
476,1014696514,10.044069,-0.960076,-2.851564,52.039455,8.586527,10.721419,-0.559326,0.645996,0.098389
477,1014713181,10.328730,-0.675688,-2.255559,52.786251,8.095650,9.643390,-0.556641,0.646973,0.090088
478,1014729848,10.490601,-1.380205,-1.469274,57.696499,10.257869,10.135732,-0.554199,0.650391,0.078857
479,1014746515,10.921378,-1.842104,-1.719198,58.866745,25.007334,10.793998,-0.549561,0.649414,0.061035
480,1014763182,10.187700,-1.950579,-2.804419,60.745735,35.772312,13.926897,-0.548340,0.653564,0.043945
481,1014779849,10.081184,-1.679206,-3.453291,50.879921,33.365742,12.809258,-0.545898,0.654053,0.030762
482,1014796516,10.020909,-0.758504,-4.011501,41.837864,22.756598,12.451496,-0.544189,0.655029,0.018066
483,1014813183,9.472734,-0.571387,-3.533339,35.869011,-6.806687,12.528178,-0.535645,0.654541,0.007080
484,1014829850,9.690010,-0.330289,-3.100576,36.709507,-25.630699,9.049513,-0.534424,0.654785,0.011475
485,1014846517,9.904337,-0.340718,-3.045562,41.935356,-31.113008,4.724205,-0.536377,0.652832,0.016602
486,1014863184,10.324853,-0.743873,-3.478189,49.642113,-26.789749,2.077232,-0.534424,0.655273,0.011475
487,1014879851,10.170307,-0.547291,-3.469139,58.881416,-21.539299,1.810478,-0.538330,0.650635,0.009033
488,1014896518,9.789772,-0.209331,-3.048263,62.830994,-20.399090,0.935538,-0.535645,0.649170,-0.000244
489,1014913185,9.208179,0.389486,-2.349989,63.343536,-25.335115,-0.704284,-0.537109,0.645752,-0.004150
490,1014929852,8.861192,0.430578,-1.242551,60.626945,-32.159950,-2.593918,-0.535645,0.642334,-0.004639
491,1014946519,9.414621,-0.638793,-1.008102,58.604370,-33.379768,-5.015328,-0.543945,0.638672,-0.007568
492,1014963186,9.359793,-1.691112,-2.025293,55.998199,-29.300985,-6.544227,-0.541992,0.633545,-0.005615
493,1014979853,8.657767,-1.443981,-3.133365,53.915398,-29.703079,-6.717957,-0.543457,0.629883,-0.013428
494,1014996520,8.474005,-0.755485,-3.924858,57.122719,-25.986305,-5.834321,-0.545898,0.625000,-0.009033
495,1015013187,8.390860,-0.620028,-3.164679,61.224968,-29.719355,-6.083616,-0.549316,0.621094,-0.013916
496,1015029854,9.504409,-0.882792,-2.353406,62.491493,-31.657251,-8.949976,-0.550293,0.617676,-0.014893
497,1015046521,10.313737,-1.199133,-2.929956,66.650391,-27.301527,-11.413861,-0.555176,0.614502,-0.017822
498,1015063188,10.239617,-0.998000,-3.169251,65.697441,-22.271580,-14.370899,-0.557617,0.610596,-0.021240
499,1015079855,9.566508,-0.183814,-2.907572,56.581047,-16.281723,-17.005407,-0.563965,0.601562,-0.024658
500,1015096522,8.737248,-0.096423,-2.079120,45.011005,-16.259890,-20.094414,-0.568359,0.595703,-0.026367
501,1015113189,8.499837,-0.511758,-1.872055,36.324688,-17.208620,-21.370932,-0.570557,0.586426,-0.027832
502,1015129856,8.625042,-1.262209,-1.939064,35.097706,-17.448029,-20.616510,-0.575439,0.581299,-0.026855
503,1015146523,9.013687,-2.025398,-2.125602,40.097626,-14.160718,-20.590708,-0.584717,0.575928,-0.026855
504,1015163190,9.138337,-2.033483,-2.028712,48.251801,-10.984450,-21.452671,-0.585205,0.567383,-0.033203
505,1015179857,9.608794,-2.371040,-1.898380,52.157959,-8.390575,-22.286486,-0.592529,0.558594,-0.035156
506,1015196524,9.808464,-2.891682,-1.825087,51.430660,-5.944836,-20.947626,-0.596924,0.552979,-0.039551
507,1015213191,9.463136,-2.752403,-2.319067,47.037876,-8.737583,-17.752773,-0.596924,0.546631,-0.046387
508,1015229858,9.001382,-2.089411,-2.478899,41.577614,-14.454125,-15.527933,-0.601318,0.538818,-0.046875
509,1015246525,8.962918,-1.409756,-2.475908,39.319733,-14.796574,-15.699825,-0.605225,0.533203,-0.049316
510,1015263192,8.807612,-1.115736,-2.253969,39.564857,-14.419592,-16.950811,-0.607910,0.527344,-0.042969
511,1015279859,9.103390,-1.509247,-2.143136,41.955463,-14.217405,-19.019352,-0.610352,0.520996,-0.045898
512,1015296526,9.684184,-2.334422,-1.837862,51.207535,-14.994627,-19.414686,-0.617188,0.514404,-0.049316
513,1015313193,9.919300,-2.944927,-2.017000,56.187244,-11.765869,-18.211760,-0.619629,0.506104,-0.047363
514,1015329860,9.985781,-3.025422,-2.482740,59.373352,-9.435923,-15.527959,-0.623047,0.498779,-0.052734
515,1015346527,9.521839,-2.248454,-2.369110,60.922050,-7.323182,-13.197971,-0.624512,0.492676,-0.057129
516,1015363194,9.215724,-1.650387,-1.811160,58.746014,-8.672661,-11.273844,-0.626953,0.484863,-0.059082
517,1015379861,9.431314,-1.738932,-1.460113,58.057995,-6.172647,-9.078365,-0.631348,0.479004,-0.065918
518,1015396528,9.831259,-2.014192,-2.084621,61.122025,-0.028213,-7.286373,-0.630859,0.471924,-0.073242
519,1015413195,9.745117,-1.930277,-2.273041,68.220688,5.948283,-5.175414,-0.629639,0.468506,-0.082520
520,1015429862,9.330642,-1.635869,-1.643312,74.916702,9.724782,-2.481063,-0.634033,0.461670,-0.090332
521,1015446529,9.175570,-1.750771,-0.718376,77.841805,12.155854,-0.103362,-0.632568,0.457764,-0.100098
522,1015463196,9.643122,-2.594976,-0.607205,75.096176,19.354794,2.668919,-0.634277,0.451660,-0.113281
523,1015479863,10.211086,-3.807100,-1.377888,75.099442,26.846090,9.662206,-0.629395,0.454590,-0.123291
524,1015496530,11.289107,-3.672113,-2.753186,77.461922,36.636108,17.419020,-0.629639,0.453125,-0.140381
525,1015513197,11.974590,-1.930978,-4.383402,70.659386,45.141899,19.208752,-0.620605,0.450195,-0.161865
526,1015529864,11.214819,0.156106,-4.918944,57.289402,40.377605,14.226362,-0.615479,0.449707,-0.177002
527,1015546531,10.943223,1.115054,-4.553846,43.046997,18.079138,3.981172,-0.613037,0.447266,-0.187012
528,1015563198,11.058793,-0.210701,-4.348707,38.354931,-5.874367,-2.736962,-0.612061,0.439453,-0.193848
529,1015579865,10.409101,-2.386436,-3.519775,46.971466,-22.060335,-4.552252,-0.614502,0.437012,-0.190430
530,1015596532,10.017702,-3.987895,-3.282050,56.194820,-17.373520,-4.538408,-0.618408,0.428955,-0.188477
531,1015613199,8.873406,-4.075220,-3.464416,64.823410,-13.157868,-2.990662,-0.620361,0.423096,-0.192871
532,1015629866,8.092993,-2.916807,-3.493189,64.906021,-16.828230,-1.622116,-0.620850,0.415771,-0.197266
533,1015646533,8.380930,-1.365462,-2.969735,59.692459,-22.511618,0.316981,-0.621338,0.408447,-0.198242
534,1015663200,9.089651,-0.360519,-2.498756,47.935143,-21.442316,-0.533966,-0.628418,0.403320,-0.195068
535,1015679867,9.412534,0.136502,-2.571273,33.502747,-19.390722,-3.696419,-0.630859,0.400391,-0.192627
536,1015696534,9.292760,-0.677619,-2.741458,21.165045,-22.321480,-7.544311,-0.633789,0.395996,-0.192139
537,1015713201,9.437049,-2.011142,-2.345922,18.886747,-26.110868,-9.776816,-0.637695,0.389648,-0.190674
538,1015729868,9.612622,-3.010839,-2.497810,25.488930,-20.274515,-8.709262,-0.642334,0.386963,-0.182861
539,1015746535,8.908844,-3.158743,-2.951093,34.125587,-15.571694,-10.055074,-0.641357,0.380127,-0.177979
540,1015763202,7.972796,-2.921085,-2.942324,36.645115,-19.892271,-10.932404,-0.644287,0.371338,-0.178955
541,1015779869,7.472544,-2.472758,-2.604465,35.997543,-25.753359,-9.584174,-0.649170,0.369873,-0.176025
542,1015796536,7.621025,-2.166929,-1.727323,40.565639,-25.468021,-10.006633,-0.653320,0.358887,-0.172119
543,1015813203,8.105942,-2.031235,-1.893673,44.338684,-16.115698,-13.775448,-0.657227,0.354492,-0.171387
544,1015829870,8.613353,-2.082282,-2.056347,44.314217,-12.014775,-17.698395,-0.658691,0.348145,-0.170898
545,1015846537,9.067952,-2.535746,-1.979784,42.610722,-10.019576,-18.592176,-0.663818,0.336426,-0.167480
546,1015863204,9.516606,-3.138566,-2.297548,39.147594,-7.439487,-16.433599,-0.665283,0.329346,-0.170898
547,1015879871,9.418877,-2.994691,-2.935721,37.193523,-7.179268,-14.248220,-0.666748,0.322998,-0.175293
548,1015896538,9.536204,-2.739928,-2.988014,31.735451,-10.830981,-11.809378,-0.669189,0.317139,-0.171387
549,1015913205,9.546002,-2.810683,-3.129707,29.360836,-11.204407,-7.729595,-0.667236,0.311279,-0.169434
550,1015929872,9.759411,-2.535287,-2.916296,30.590549,-10.725961,-7.092965,-0.669678,0.307373,-0.168457
551,1015946539,9.749214,-2.376887,-2.344983,29.890886,-6.904530,-8.938620,-0.676514,0.299805,-0.168945
552,1015963206,9.733665,-2.389543,-2.247813,28.031408,0.749936,-7.503942,-0.674072,0.299316,-0.173340
553,1015979873,9.344622,-2.346438,-2.101934,26.133898,9.736114,-7.131467,-0.673096,0.292969,-0.175293
554,1015996540,9.272887,-2.089851,-1.830299,19.536829,14.821074,-6.653631,-0.669678,0.289551,-0.179688
555,1016013207,9.296803,-2.025920,-2.095791,17.403954,23.171824,-5.928500,-0.667236,0.285156,-0.186035
556,1016029874,8.997361,-2.200089,-1.928030,12.518412,29.044004,-6.558437,-0.665039,0.280273,-0.196289
557,1016046541,8.795103,-2.251737,-1.506875,7.253308,32.116730,-6.706661,-0.663086,0.280273,-0.207764
558,1016063208,8.828789,-2.681645,-0.872125,-0.167457,37.612816,-6.067384,-0.661621,0.279785,-0.216064
559,1016079875,8.928513,-3.098808,-1.088163,-7.422643,46.265778,-4.391652,-0.654541,0.277344,-0.229736
560,1016096542,8.890801,-3.297310,-1.282853,-13.299929,49.909588,-3.157551,-0.652832,0.276367,-0.240967
561,1016113209,8.773019,-3.200623,-1.627522,-18.049501,51.761829,-1.472925,-0.643555,0.277832,-0.255371
562,1016129876,8.631174,-3.238803,-1.159814,-17.163445,49.707909,-0.419502,-0.636963,0.278564,-0.267578
563,1016146543,8.812023,-3.244922,-0.709857,-14.258820,53.463696,0.772199,-0.630127,0.279053,-0.279297
564,1016163210,8.518809,-3.427124,-0.998750,-10.924034,56.655025,0.974312,-0.625977,0.285400,-0.293457
565,1016179877,7.919232,-3.803446,-0.981618,-6.748106,53.645023,-0.336836,-0.616943,0.283447,-0.309326
566,1016196544,7.821424,-3.924610,-0.555443,-9.677594,50.927757,-1.856016,-0.611816,0.285400,-0.320557
567,1016213211,9.094266,-3.387293,-1.370653,-25.961992,47.651749,-0.989378,-0.604004,0.287598,-0.325928
568,1016229878,11.786526,-2.828625,-2.829614,-34.827133,34.626930,9.824944,-0.597168,0.293945,-0.334229
569,1016246545,11.814133,-2.583493,-0.686592,-12.318852,-5.690790,12.876588,-0.593018,0.299316,-0.338135
570,1016263212,11.459370,-1.923307,1.173908,4.838481,-31.408800,1.685174,-0.597656,0.299316,-0.327881
571,1016279879,11.445420,-1.531285,-0.868971,21.494352,-30.055202,-4.201144,-0.601074,0.296875,-0.322021
572,1016296546,9.511139,-1.497699,-0.685868,39.753212,-35.993519,1.035705,-0.605713,0.292969,-0.314209
573,1016313213,9.494329,-1.127578,-2.389407,31.675285,-19.854507,11.279605,-0.604248,0.287109,-0.315186
574,1016329880,10.529287,0.615533,-3.301697,21.904175,-10.809690,22.895748,-0.605225,0.290527,-0.309814
575,1016346547,11.333103,1.710843,-1.269037,16.567160,-23.800657,27.170389,-0.603271,0.295898,-0.308838
576,1016363214,12.637361,1.340827,-0.146642,18.771912,-30.724014,21.480406,-0.607178,0.300293,-0.304932
577,1016379881,12.794409,0.356614,-1.065048,20.043179,-25.743456,11.663116,-0.608643,0.300781,-0.296143
578,1016396548,11.458937,-0.979891,-1.194400,20.664776,-27.550924,3.804801,-0.609863,0.298340,-0.289795
579,1016413215,9.848709,-1.729591,-1.251669,20.442356,-30.693907,-0.005737,-0.616699,0.297852,-0.289551
580,1016429882,8.865447,-1.047113,-0.901948,18.020481,-34.388653,-2.647061,-0.617188,0.293945,-0.278320
581,1016446549,9.261870,-0.318257,-1.269604,13.030175,-27.380703,-1.751748,-0.620605,0.291504,-0.273438
582,1016463216,9.225823,-0.081113,-1.624284,8.365785,-23.066217,1.240368,-0.625732,0.290283,-0.270020
583,1016479883,9.164367,-0.405276,-1.490597,12.761612,-27.081209,0.682331,-0.626709,0.288330,-0.263672
584,1016496550,9.731047,-1.023595,-1.564323,23.566244,-25.368687,-1.310185,-0.628174,0.286377,-0.258789
585,1016513217,10.094415,-1.224190,-2.315271,28.877134,-20.888275,-2.538691,-0.632812,0.284912,-0.252441
586,1016529884,9.670670,-0.879981,-2.443284,30.926237,-20.029291,-2.710631,-0.632812,0.280518,-0.249512
587,1016546551,8.921639,-0.553914,-2.044860,26.347837,-22.674223,-2.072422,-0.635742,0.273682,-0.246826
588,1016563218,9.396262,-0.626164,-1.721835,24.627064,-19.979551,-2.904824,-0.641113,0.274658,-0.244385
589,1016579885,10.317774,-1.064809,-1.996630,24.756456,-13.119478,-8.121746,-0.644043,0.270508,-0.242432
590,1016596552,10.691013,-1.685754,-2.326032,25.125460,-6.074261,-11.966645,-0.641357,0.264893,-0.240967
591,1016613219,10.397941,-2.179437,-1.692814,27.641821,-6.018799,-11.004071,-0.643799,0.259766,-0.243408
592,1016629886,10.517118,-2.703383,-1.475195,24.656988,-2.288001,-9.557812,-0.642334,0.252930,-0.241943
593,1016646553,10.570410,-2.238706,-1.429835,23.745983,-0.192941,-4.957706,-0.642822,0.249512,-0.241455
594,1016663220,10.576304,-1.981756,-1.327725,27.381771,4.777070,-3.819286,-0.647217,0.244629,-0.246338
595,1016679887,10.349867,-1.696058,-1.266545,30.686733,13.542533,-8.631733,-0.643799,0.240723,-0.249756
596,1016696554,9.835804,-1.807524,-1.519361,27.975616,17.973108,-14.161609,-0.640381,0.237305,-0.255615
597,1016713221,9.740914,-1.674736,-1.330949,18.149736,28.058378,-15.082353,-0.642578,0.226562,-0.267578
598,1016729888,9.468480,-1.615021,-2.123881,12.812334,22.245031,-13.091098,-0.635742,0.223633,-0.274414
599,1016746555,9.481409,-1.067499,-1.268923,15.875460,17.735443,-11.603489,-0.635254,0.218262,-0.279297
600,1016763222,8.887522,-1.545648,-0.912448,11.683988,27.105400,-14.152246,-0.636230,0.214111,-0.286133
601,1016779889,8.805376,-1.471850,-0.737781,16.122427,30.631432,-17.482744,-0.627197,0.204590,-0.299805
602,1016796556,8.884439,-1.189605,-0.484107,21.262253,31.597057,-21.439417,-0.624268,0.197754,-0.305664
603,1016813223,9.254855,-0.583072,-0.192646,21.661215,33.823380,-23.071491,-0.622803,0.189697,-0.316895
604,1016829890,9.546218,-0.466672,-0.115617,20.548754,36.159229,-23.196289,-0.619141,0.183350,-0.329346
605,1016846557,9.674387,-0.697144,-0.088731,17.931934,38.922249,-25.243305,-0.615723,0.175049,-0.338623
606,1016863224,9.835596,-0.818351,-0.637389,9.455337,44.809170,-27.336618,-0.608887,0.165283,-0.351318
607,1016879891,10.122295,-1.158748,-0.806288,2.661641,44.837318,-28.798208,-0.603760,0.156982,-0.365479
608,1016896558,10.207377,-2.171094,0.311480,6.002204,30.752729,-30.412699,-0.601318,0.147705,-0.374756
609,1016913225,10.507011,-2.443979,0.908718,12.370789,24.594681,-32.998062,-0.597412,0.137451,-0.381592
610,1016929892,10.144942,-1.765239,-0.401962,8.025873,24.344566,-33.332691,-0.594971,0.126221,-0.386475
611,1016946559,9.515265,-1.322161,-1.008318,2.670913,20.988520,-32.229744,-0.593018,0.119385,-0.390381
612,1016963226,9.162456,-1.679013,-0.671187,5.034602,14.967175,-31.741829,-0.587646,0.110596,-0.395020
613,1016979893,9.374757,-1.463231,0.095795,8.875984,7.646161,-33.125099,-0.590576,0.101807,-0.401367
614,1016996560,9.499620,-1.025689,0.317734,9.119717,9.763660,-32.246094,-0.584717,0.090576,-0.399902
615,1017013227,9.552925,-0.555084,0.718552,3.391976,11.913040,-34.713203,-0.586182,0.080811,-0.405762
616,1017029894,9.771160,0.381239,0.285060,-4.343648,20.833809,-37.972206,-0.580811,0.071045,-0.409668
617,1017046561,9.530700,0.510611,0.008604,-3.712757,26.814180,-39.110336,-0.578369,0.063721,-0.415039
618,1017063228,8.724967,-0.509737,0.422756,17.265057,15.645334,-43.041424,-0.577393,0.051758,-0.421875
619,1017079895,8.821314,-0.402092,1.182642,35.973412,-2.288320,-49.204533,-0.572998,0.036133,-0.421875
620,1017096562,9.814890,-0.060266,1.899714,49.092960,-6.781564,-53.597633,-0.577393,0.016602,-0.422363
621,1017113229,10.326608,0.418150,1.800919,50.924454,-0.268183,-54.853397,-0.573730,-0.007812,-0.419434
622,1017129896,10.124410,0.826311,1.197674,46.793549,12.512393,-52.424294,-0.570801,-0.028809,-0.422852
623,1017146563,9.776587,0.673348,0.838205,49.624916,19.152447,-48.808846,-0.565674,-0.046387,-0.424316
624,1017163230,9.212174,0.461548,0.970389,49.017872,12.050285,-45.314400,-0.563721,-0.066895,-0.426270
625,1017179897,8.780167,0.792241,1.310850,44.473545,-6.474399,-41.160851,-0.562744,-0.083252,-0.425537
626,1017196564,8.813014,1.385170,0.704391,36.565437,-8.931277,-32.770809,-0.563477,-0.097900,-0.421143
627,1017213231,8.558159,1.462724,0.283737,38.619816,-11.003892,-24.983784,-0.561523,-0.111572,-0.419189
628,1017229898,8.332741,0.974298,0.861009,39.064098,-12.010561,-20.499170,-0.566162,-0.122314,-0.414795
629,1017246565,8.300261,1.045512,1.167416,41.483601,-19.531673,-20.246136,-0.564209,-0.134033,-0.405518
630,1017263232,8.703058,2.074194,0.666457,31.514624,-26.410055,-20.563183,-0.570801,-0.146484,-0.400635
631,1017279899,9.421535,3.103745,0.321025,18.129246,-26.981134,-16.711685,-0.578125,-0.151855,-0.393066
632,1017296566,10.056254,2.475669,0.309777,23.064011,-20.058867,-12.092903,-0.579834,-0.159180,-0.386230
633,1017313233,9.992290,0.966450,0.806785,38.274982,-17.202589,-11.541646,-0.582275,-0.166504,-0.378906
634,1017329900,9.421377,0.471641,1.354440,44.129189,-20.191204,-9.814013,-0.581543,-0.179199,-0.372559
635,1017346567,9.316925,0.944066,0.532205,34.922390,-26.370155,-3.259033,-0.588379,-0.183594,-0.358887
636,1017363234,9.260176,1.537805,-0.570111,27.061808,-30.914677,5.720151,-0.595459,-0.184326,-0.353027
637,1017379901,9.377839,1.747395,-0.283209,29.224894,-32.514759,11.577977,-0.601318,-0.186279,-0.342529
638,1017396568,8.858345,1.177186,0.428287,35.138496,-36.962105,10.832296,-0.609863,-0.191162,-0.333740
639,1017413235,8.765330,1.339493,0.748966,34.273586,-42.801147,7.319823,-0.614990,-0.194580,-0.319580
640,1017429902,9.093894,1.788499,0.303281,26.321451,-40.323948,7.665797,-0.617920,-0.197998,-0.305908
641,1017446569,9.391151,2.108472,-0.434795,21.026396,-35.601376,9.391128,-0.626465,-0.196289,-0.296387
642,1017463236,9.839128,1.669104,-0.891960,24.748938,-29.210533,10.604119,-0.634766,-0.199219,-0.287109
643,1017479903,9.666393,0.756697,0.180825,32.134369,-37.377522,9.977432,-0.639404,-0.198242,-0.277344
644,1017496570,10.155770,0.445275,0.922518,33.288982,-49.310024,8.120872,-0.646484,-0.202148,-0.260986
645,1017513237,10.563069,0.654183,0.592948,31.352594,-44.151630,7.144179,-0.652344,-0.206299,-0.246826
646,1017529904,10.576061,0.527724,-0.280511,30.256416,-32.629196,6.297868,-0.658936,-0.206787,-0.231689
647,1017546571,10.160692,1.019546,-0.963726,21.167685,-26.557201,7.230309,-0.661133,-0.209229,-0.224365
648,1017563238,10.135535,1.176005,-0.509433,15.511614,-30.643620,9.201730,-0.667969,-0.204346,-0.215088
649,1017579905,10.399489,1.307468,0.370025,13.045339,-38.975445,9.485818,-0.673096,-0.206299,-0.199707
650,1017596572,10.291364,1.311200,0.179680,15.360373,-39.186707,8.175325,-0.679932,-0.204834,-0.188477
651,1017613239,10.048609,1.115186,-0.527625,14.505031,-35.842014,6.824495,-0.685547,-0.208252,-0.178711
652,1017629906,9.774168,0.404858,-0.895529,13.556664,-28.290133,4.389526,-0.692871,-0.205078,-0.166504
653,1017646573,9.847024,0.122207,-0.455001,16.864969,-23.759859,1.753496,-0.695557,-0.208984,-0.156982
654,1017663240,10.152973,-0.187243,-0.468154,22.530937,-18.340834,-0.420549,-0.699951,-0.211426,-0.149658
655,1017679907,9.912986,-0.161639,-0.682921,21.382267,-19.496330,-1.982736,-0.703613,-0.218262,-0.141846
656,1017696574,9.994328,0.389121,-0.930411,17.128794,-28.206448,-0.725021,-0.706543,-0.217773,-0.133057
657,1017713241,10.058513,1.074002,-1.092273,15.573831,-26.572844,-1.349282,-0.711182,-0.223145,-0.125732
658,1017729908,9.593085,1.224683,-1.589427,21.569056,-21.951298,-3.974720,-0.714111,-0.227539,-0.110840
659,1017746575,9.276901,0.891623,-2.012665,30.771902,-19.909588,-5.936758,-0.716797,-0.231934,-0.106934
660,1017763242,9.192310,0.455931,-1.260042,34.619366,-19.245659,-5.915530,-0.724121,-0.235596,-0.095215
661,1017779909,9.350958,0.610784,-0.584790,35.926174,-15.971819,-4.428306,-0.724365,-0.241455,-0.086914
662,1017796576,9.649269,0.335692,-1.557492,36.014484,-5.761770,-1.129705,-0.721924,-0.245117,-0.078613
663,1017813243,9.116731,0.016462,-3.227578,39.721172,-3.075616,4.322482,-0.726318,-0.249268,-0.075195
664,1017829910,8.644897,-0.634612,-2.741131,32.881157,-24.633656,9.751847,-0.734375,-0.246338,-0.062256
665,1017846577,9.487991,-0.919751,-1.460933,26.022488,-36.249043,12.596068,-0.734619,-0.246826,-0.049072
666,1017863244,10.633223,-0.319034,-0.462491,24.920927,-16.007196,9.259349,-0.737549,-0.244873,-0.036377
667,1017879911,11.345983,0.755393,-0.325860,21.143772,13.413126,5.438031,-0.743408,-0.243408,-0.034912
668,1017896578,11.215392,1.695631,-0.182825,15.506150,21.172628,4.474504,-0.741943,-0.243408,-0.035400
669,1017913245,10.903025,1.935931,-0.379122,13.707959,17.134598,4.271764,-0.742432,-0.242432,-0.036377
670,1017929912,10.640427,1.540876,-0.323093,11.610970,11.184007,4.187956,-0.743896,-0.245850,-0.036865
671,1017946579,10.430144,0.759497,-0.417780,15.966604,13.775627,2.303526,-0.744385,-0.246338,-0.036377
672,1017963246,10.208966,-0.256603,-0.589985,15.450841,14.719085,1.780924,-0.744385,-0.249756,-0.036865
673,1017979913,9.826544,-0.937480,-1.601774,21.406429,7.267024,8.990544,-0.746826,-0.249756,-0.038330
674,1017996580,9.163846,-0.628868,-1.748986,27.631088,-0.779115,13.014412,-0.749756,-0.249756,-0.033936
675,1018013247,8.896705,-0.423825,-1.675504,32.697964,-1.988643,14.266253,-0.752930,-0.249756,-0.028564
676,1018029914,9.382607,-0.324399,-1.509742,30.168180,4.593956,13.623120,-0.755371,-0.244873,-0.021973
677,1018046581,10.432228,0.096295,-1.592899,28.919531,17.337156,13.589925,-0.755859,-0.243896,-0.019531
678,1018063248,11.551788,0.288758,-0.877657,36.802078,24.722183,12.790572,-0.762695,-0.245117,-0.018066
679,1018079915,12.001077,0.079756,-0.378755,41.431873,26.492290,14.113112,-0.762695,-0.240234,-0.020020
680,1018096582,12.287143,-0.024913,-0.170045,49.107723,25.238441,12.864846,-0.762695,-0.244629,-0.023438
681,1018113249,12.394453,-0.463223,-0.188097,59.716927,27.488621,7.436180,-0.765137,-0.243652,-0.024414
682,1018129916,12.749245,-0.322032,0.838721,58.591957,32.034607,1.886719,-0.768555,-0.249756,-0.028809
683,1018146583,12.539469,0.153452,1.489877,48.102753,31.865633,1.993722,-0.768799,-0.246826,-0.037842
684,1018163250,12.004827,0.797238,0.499640,36.907219,16.981455,7.679085,-0.769287,-0.252197,-0.042725
685,1018179917,11.687325,0.709899,-0.147070,30.947117,3.445030,10.945660,-0.773682,-0.252197,-0.042725
686,1018196584,11.211583,-0.348940,0.558479,28.283340,1.247362,10.447204,-0.776611,-0.253174,-0.046143
687,1018213251,11.179078,-0.439049,0.752872,27.923840,5.449241,9.298688,-0.777100,-0.253662,-0.049072
688,1018229918,10.917734,-0.233022,0.003646,17.868963,6.089537,9.269961,-0.775146,-0.253418,-0.058838
689,1018246585,10.260474,-0.483179,-0.582144,6.412494,-3.010121,9.652040,-0.781006,-0.254883,-0.060303
690,1018263252,9.828888,-0.792890,-0.888454,4.475575,-16.565367,10.059907,-0.778809,-0.254883,-0.068115
691,1018279919,9.922298,-0.926069,-2.244222,15.514189,-22.348310,10.101467,-0.777344,-0.252441,-0.064209
692,1018296586,9.625340,-1.248686,-3.250722,21.941988,-32.026306,8.209357,-0.776611,-0.251465,-0.056885
693,1018313253,8.884101,-1.260813,-4.726839,17.467295,-46.606243,6.627620,-0.778076,-0.253906,-0.048096
694,1018329920,8.757270,-2.023303,-5.153798,22.435188,-64.926933,8.638994,-0.777832,-0.253174,-0.030273
695,1018346587,9.273416,-2.749722,-5.335010,25.569494,-70.270958,9.672272,-0.777100,-0.253174,-0.012207
696,1018363254,9.653840,-3.303749,-4.261551,28.655485,-82.096092,11.366167,-0.779785,-0.249023,0.012207
697,1018379921,9.378494,-3.055971,-2.800212,32.543293,-86.383362,12.361431,-0.777588,-0.247070,0.039307
698,1018396588,8.745746,-2.803413,-2.047011,33.732639,-79.415901,11.872207,-0.775391,-0.239990,0.060791
699,1018413255,8.408462,-3.158177,-3.187064,27.403488,-64.832466,11.264161,-0.774902,-0.234619,0.080322
700,1018429922,7.882629,-2.196818,-4.645845,13.692037,-49.566807,11.612584,-0.774658,-0.232422,0.093018
701,1018446589,7.268613,-1.402427,-6.113057,6.548390,-50.609318,9.011727,-0.769287,-0.229980,0.106445
702,1018463256,7.268718,-0.899795,-5.801411,13.108411,-59.727036,0.482761,-0.766113,-0.226807,0.119141
703,1018479923,7.981905,-0.910590,-4.370313,13.498808,-64.067650,-6.509719,-0.759766,-0.229736,0.132812
704,1018496590,8.766705,-1.662092,-4.292826,14.635277,-57.030766,-11.613509,-0.756104,-0.229492,0.148438
705,1018513257,8.542120,-2.487479,-4.536576,20.575975,-49.564377,-14.591970,-0.747803,-0.231689,0.158691
706,1018529924,7.418534,-2.192580,-4.149140,29.019865,-47.338482,-15.703701,-0.744141,-0.236084,0.172852
707,1018546591,7.076550,-1.721746,-4.109819,29.446066,-44.069340,-16.888760,-0.739746,-0.236816,0.180664
708,1018563258,7.341642,-1.219937,-5.071422,28.652227,-41.147804,-20.194706,-0.734131,-0.241699,0.195312
709,1018579925,6.697125,-1.314953,-5.648995,37.173397,-38.910973,-22.615658,-0.728516,-0.245361,0.204346
710,1018596592,6.550613,-2.059146,-5.754850,40.282097,-44.102905,-24.200371,-0.723633,-0.249268,0.215576
711,1018613259,7.965925,-2.058256,-4.884442,42.472195,-39.391426,-23.681404,-0.718994,-0.251953,0.228760
712,1018629926,8.981951,-1.232817,-4.213606,42.096672,-24.521576,-17.664633,-0.715088,-0.253906,0.234131
713,1018646593,9.028971,-0.685030,-4.242803,40.671047,-8.915545,-11.458223,-0.715576,-0.252441,0.239990
714,1018663260,7.884552,-0.782503,-4.194999,40.343906,-3.486268,-8.776937,-0.712646,-0.251953,0.246826
715,1018679927,7.346993,-1.004379,-4.099821,37.612946,-1.430810,-10.890002,-0.711670,-0.249023,0.246826
716,1018696594,7.861933,-0.570971,-3.871334,25.919605,-0.199703,-11.647189,-0.708740,-0.248779,0.247314
717,1018713261,8.640569,-0.420058,-3.808417,10.130607,3.654456,-11.490405,-0.708252,-0.253662,0.247314
718,1018729928,10.133679,-0.531338,-4.201088,1.856187,17.582996,-10.672585,-0.710205,-0.251465,0.239014
719,1018746595,10.807345,-0.622991,-3.534162,2.369983,29.098871,-8.995440,-0.709717,-0.255371,0.230713
720,1018763262,10.843974,0.257738,-2.640461,-3.203154,38.404545,-8.600828,-0.712402,-0.253418,0.219971
721,1018779929,10.515242,0.329344,-2.995932,-14.334897,53.522850,-10.978137,-0.712891,-0.257080,0.201660
722,1018796596,10.123906,-0.660416,-3.432320,-19.614874,59.776867,-13.401937,-0.714111,-0.263916,0.182617
723,1018813263,9.898512,-1.375003,-3.442219,-18.188887,62.130241,-15.362136,-0.714355,-0.266113,0.160645
724,1018829930,9.639378,-1.740436,-3.277742,-17.923195,59.553726,-16.593081,-0.712646,-0.273926,0.140137
725,1018846597,9.501360,-1.567690,-2.691172,-22.743732,52.940277,-15.651754,-0.711426,-0.274414,0.121338
726,1018863264,9.309243,-1.224262,-1.762639,-31.881893,51.563297,-14.103530,-0.715332,-0.276611,0.102783
727,1018879931,9.304797,-1.016570,-1.922353,-33.612000,56.186588,-14.413965,-0.708252,-0.282471,0.081299
728,1018896598,9.368051,-1.324095,-3.050336,-24.718952,63.948151,-15.068252,-0.708496,-0.284424,0.064453
729,1018913265,9.035571,-2.160583,-3.432513,-16.787132,62.367149,-15.375835,-0.707275,-0.288086,0.040039
730,1018929932,8.945379,-1.911216,-3.447342,-15.982918,52.698296,-14.869727,-0.703125,-0.291992,0.021484
731,1018946599,9.001534,-0.467693,-3.132480,-22.244781,47.765160,-12.787093,-0.699707,-0.291992,0.006104
732,1018963266,9.278417,0.263218,-2.369297,-31.338226,50.744965,-11.692413,-0.697510,-0.294434,-0.011475
733,1018979933,10.199960,0.057437,-2.268351,-40.254402,56.098495,-9.839019,-0.696289,-0.296631,-0.032959
734,1018996600,10.995196,-0.512239,-3.310560,-33.741127,49.192722,-2.444212,-0.691162,-0.297607,-0.053955
735,1019013267,10.203593,-0.977715,-2.251608,-20.591633,27.869890,-1.721117,-0.689209,-0.294678,-0.064941
736,1019029934,9.877679,-1.049025,-1.852553,-10.429341,15.253863,-8.848074,-0.687012,-0.299561,-0.072266
737,1019046601,9.205330,-0.722237,-1.317579,-1.400530,14.332637,-14.672998,-0.683105,-0.298096,-0.075684
738,1019063268,8.923778,-0.895133,-0.551601,5.868068,15.356697,-18.819532,-0.680664,-0.303467,-0.081055
739,1019079935,8.755492,-0.694984,-0.824330,7.048741,25.624607,-22.781786,-0.677734,-0.309814,-0.085938
740,1019096602,8.498787,-0.374642,-1.686259,3.075954,30.540634,-23.535738,-0.673828,-0.314209,-0.092773
741,1019113269,8.618872,-0.210618,-1.816358,0.249526,26.335178,-21.389368,-0.669678,-0.321045,-0.100586
742,1019129936,8.778152,-0.022263,-1.669085,-0.027086,19.112665,-20.197628,-0.667236,-0.325928,-0.104980
743,1019146603,8.910419,-0.117069,-1.307847,3.863638,6.714478,-22.864538,-0.665771,-0.332275,-0.109375
744,1019163270,9.774908,-0.323265,-0.717241,7.738377,0.253701,-24.596586,-0.659912,-0.338379,-0.107422
745,1019179937,10.213565,-0.672188,-0.080198,8.520784,-0.370886,-24.910564,-0.659912,-0.345703,-0.109863
746,1019196604,10.249004,-0.783903,-0.407349,5.921114,8.514292,-24.705919,-0.654541,-0.350586,-0.111572
747,1019213271,9.487390,-0.960374,-0.338454,6.358427,11.932789,-23.700901,-0.652100,-0.360840,-0.116455
748,1019229938,9.874519,-0.857662,-0.445507,8.326880,10.453726,-21.607243,-0.648682,-0.363770,-0.114990
749,1019246605,10.283257,-0.302342,-0.619114,14.114915,10.234723,-18.425613,-0.643311,-0.368652,-0.117920
750,1019263272,10.565916,-0.151444,-0.602560,18.993563,5.703367,-18.731373,-0.640869,-0.372559,-0.118408
751,1019279939,10.533257,0.081933,-0.874848,25.881899,7.380836,-20.950056,-0.641602,-0.380859,-0.119873
752,1019296606,10.185312,0.415290,-1.106860,28.857420,5.136056,-21.903662,-0.636230,-0.388672,-0.115479
753,1019313273,10.061337,0.423278,-0.938473,26.342482,-3.756630,-21.225214,-0.635742,-0.393066,-0.111084
754,1019329940,10.123799,0.485389,-0.725812,25.529043,-14.891880,-20.217030,-0.632568,-0.402588,-0.105713
755,1019346607,10.116432,0.609391,-0.770942,25.934046,-20.076975,-19.046711,-0.633545,-0.407959,-0.098633
756,1019363274,10.036015,0.543504,-1.237528,30.055906,-19.638132,-16.688187,-0.630859,-0.413818,-0.087891
757,1019379941,9.647136,0.351662,-1.613018,35.412121,-23.472038,-17.999022,-0.628418,-0.416260,-0.079102
758,1019396608,9.389039,0.333993,-1.458612,35.658237,-24.162958,-23.917767,-0.629639,-0.426025,-0.064453
759,1019413275,9.435711,0.671039,-1.407587,31.491602,-21.365574,-26.826784,-0.627197,-0.431885,-0.060059
760,1019429942,9.678748,0.778695,-1.317555,31.828854,-22.141356,-24.856131,-0.624512,-0.437988,-0.047852
761,1019446609,9.849563,0.818609,-1.038055,34.255257,-24.998055,-21.746380,-0.622314,-0.448242,-0.034424
762,1019463276,9.606527,0.599790,-0.756569,34.795155,-25.267178,-19.257954,-0.621826,-0.453613,-0.024658
763,1019479943,9.324323,0.465994,-0.797418,32.551548,-23.361193,-17.343397,-0.618164,-0.456299,-0.012451
764,1019496610,9.246973,0.726422,-1.510453,30.687757,-17.704281,-14.966128,-0.617676,-0.464600,-0.008057
765,1019513277,9.345867,0.753414,-1.848896,30.362970,-17.434969,-13.388066,-0.613770,-0.464111,0.003174
766,1019529944,9.767343,0.608369,-1.406549,30.191130,-19.929728,-11.883393,-0.612549,-0.469482,0.010010
767,1019546611,10.247255,0.574970,-1.503616,30.562668,-20.072046,-11.047095,-0.616699,-0.473389,0.022217
768,1019563278,10.298407,0.680349,-1.581341,31.407112,-19.647116,-10.990850,-0.611816,-0.474609,0.029297
769,1019579945,10.138426,0.615389,-1.441409,33.294022,-20.422110,-10.719488,-0.608887,-0.479004,0.040039
770,1019596612,9.940388,0.468840,-1.473865,36.652882,-21.055111,-10.624231,-0.609619,-0.478516,0.047363
771,1019613279,9.683066,0.359199,-1.341651,40.251423,-22.861935,-10.114892,-0.610596,-0.481934,0.063965
772,1019629946,9.689622,0.263739,-1.235783,42.167301,-21.934349,-10.901381,-0.608887,-0.486816,0.075195
773,1019646613,9.781646,0.538384,-1.552444,39.043232,-12.276912,-12.170092,-0.606934,-0.489502,0.084473
774,1019663280,9.810611,0.699063,-1.956667,35.038288,-7.493083,-11.027844,-0.605713,-0.493408,0.089355
775,1019679947,9.877449,0.699758,-1.974615,33.958557,-10.946163,-9.423123,-0.603271,-0.495361,0.099854
776,1019696614,9.629447,0.694404,-1.704376,35.319908,-14.346416,-10.090051,-0.602783,-0.495361,0.105225
777,1019713281,9.323345,0.618942,-1.447976,35.361309,-13.494511,-12.297916,-0.599121,-0.499023,0.114502
778,1019729948,9.603852,0.548113,-1.570363,35.881744,-6.686692,-12.988781,-0.600098,-0.500977,0.121338
779,1019746615,10.067209,0.635119,-2.227254,39.405621,0.049631,-12.484959,-0.598877,-0.503418,0.125732
780,1019763282,9.727678,0.808248,-2.055713,42.675442,-4.943503,-12.496538,-0.596436,-0.502441,0.135010
781,1019779949,9.552840,1.022715,-1.697576,40.848503,-11.462184,-12.365038,-0.592041,-0.507568,0.143311
782,1019796616,9.346348,1.050590,-1.701090,41.134796,-10.482683,-12.022977,-0.591309,-0.513428,0.150635
783,1019813283,9.527818,1.009230,-1.847203,44.280621,-7.406070,-11.170460,-0.586914,-0.510986,0.161865
784,1019829950,9.741308,0.969990,-2.389588,45.222713,-2.438911,-8.803560,-0.591553,-0.511475,0.171387
785,1019846617,9.538050,0.973203,-2.492209,42.021904,-2.647691,-7.148653,-0.587646,-0.513428,0.176270
786,1019863284,9.067477,1.060225,-2.174546,38.486366,-8.867091,-8.863108,-0.587646,-0.515137,0.183105
787,1019879951,8.621687,1.058013,-1.648298,35.523678,-14.288201,-11.184284,-0.587402,-0.517090,0.191895
788,1019896618,8.686239,0.866227,-1.218796,31.089779,-11.210150,-10.748722,-0.583008,-0.517090,0.200684
789,1019913285,9.363186,0.599285,-1.318144,26.563093,-0.469828,-9.686892,-0.583984,-0.523926,0.205078
790,1019929952,9.645534,0.444072,-1.723796,25.504549,9.104836,-7.691041,-0.584961,-0.522949,0.204590
791,1019946619,9.450813,0.260827,-2.035366,25.769924,11.305854,-4.757713,-0.583008,-0.523438,0.208008
792,1019963286,9.380217,0.301783,-2.727629,28.483482,10.665809,-1.009297,-0.584961,-0.522949,0.205566
793,1019979953,9.715129,0.619803,-3.274469,36.664200,5.792026,2.272069,-0.586426,-0.522461,0.208496
794,1019996620,10.056717,0.756585,-3.079323,41.573330,0.390666,0.631645,-0.584717,-0.520020,0.215820
795,1020013287,10.129444,0.469981,-2.535762,43.279541,-2.690747,-1.760436,-0.584717,-0.518555,0.222656
796,1020029954,10.206403,0.263056,-2.258963,42.448303,-0.665678,-1.097357,-0.588135,-0.520508,0.229492
797,1020046621,10.403299,0.284628,-2.866008,37.992428,6.578957,0.530435,-0.584229,-0.516357,0.234375
798,1020063288,10.544437,0.944142,-3.227561,32.408543,10.744451,1.644899,-0.585449,-0.515869,0.237305
799,1020079955,10.823650,1.488333,-3.109292,28.634283,6.550551,0.555291,-0.589355,-0.516113,0.235840
800,1020096622,10.481713,1.363512,-2.551650,27.287323,-1.094229,-2.071343,-0.586914,-0.512451,0.239258
801,1020113289,10.034106,0.785428,-2.083376,26.870132,-3.486436,-3.740630,-0.584473,-0.512451,0.245361
802,1020129956,9.612170,0.401825,-1.929507,26.057652,1.727741,-4.592215,-0.584961,-0.510986,0.247803
803,1020146623,9.734617,0.428483,-1.899807,19.713423,12.349488,-3.361763,-0.585449,-0.511963,0.247314
804,1020163290,10.332157,0.628550,-2.324524,9.626740,22.467899,2.503179,-0.585449,-0.510010,0.246338
805,1020179957,10.593637,0.849353,-2.620767,6.405409,20.370735,10.511556,-0.584717,-0.509521,0.237793
806,1020196624,9.812100,0.711093,-2.721610,14.722516,7.925983,13.316748,-0.588623,-0.505127,0.237305
807,1020213291,8.694991,0.517063,-2.568148,21.319584,2.230031,10.165604,-0.589600,-0.500732,0.241455
808,1020229958,8.352433,0.810561,-2.881969,17.800789,13.139345,5.615422,-0.592041,-0.498291,0.241455
809,1020246625,8.394541,1.265626,-3.038648,11.063488,22.747196,3.533722,-0.591553,-0.495850,0.235840
810,1020263292,8.853596,1.478075,-2.944478,3.328705,25.784576,4.354637,-0.594482,-0.493652,0.228027
811,1020279959,9.032848,1.312356,-2.888012,0.482243,21.563402,7.700619,-0.595215,-0.492676,0.220703
812,1020296626,8.749738,1.071284,-2.355931,4.414897,12.138696,10.498098,-0.595215,-0.490234,0.216309
813,1020313293,8.266351,0.986767,-1.349516,2.599185,8.642891,13.721137,-0.597656,-0.486816,0.213379
814,1020329960,7.888383,1.074040,-1.426701,-8.385653,16.006287,17.417986,-0.601562,-0.480957,0.211426
815,1020346627,7.971179,0.828546,-2.082328,-19.533237,23.210863,22.320574,-0.607666,-0.477295,0.196777
816,1020363294,8.787483,0.644782,-2.826820,-26.846807,31.759052,25.616880,-0.611328,-0.468994,0.184082
817,1020379961,9.318405,0.390762,-2.546703,-28.159893,34.842167,27.650303,-0.617188,-0.465332,0.173828
818,1020396628,9.927656,0.051216,-1.942639,-27.236864,29.588278,30.400578,-0.621826,-0.457520,0.161133
819,1020413295,11.042366,0.170150,-1.977362,-28.103840,28.186794,31.642620,-0.625732,-0.451904,0.146240
820,1020429962,11.901704,0.682664,-2.259207,-31.860380,30.672857,32.070210,-0.631836,-0.442139,0.131104
821,1020446629,12.249004,0.854495,-1.907535,-32.195820,21.474928,33.291931,-0.637939,-0.434082,0.116455
822,1020463296,11.835684,0.355237,-1.221641,-25.213707,-2.393765,33.629532,-0.644775,-0.424805,0.111572
823,1020479963,11.019298,0.056922,-1.271829,-21.225157,-13.074404,33.822861,-0.647705,-0.415039,0.113037
824,1020496630,10.043666,0.115775,-2.406211,-19.848654,-4.943072,33.283600,-0.651367,-0.408936,0.110107
825,1020513297,9.541358,0.501092,-2.895607,-17.112659,-2.010567,30.716400,-0.658203,-0.398682,0.107666
826,1020529964,9.096192,0.642179,-2.054680,-19.149679,-9.602277,25.630377,-0.661621,-0.393311,0.109131
827,1020546631,8.322643,0.254383,-0.758926,-28.540924,-29.390833,22.585367,-0.663086,-0.385498,0.112061
828,1020563298,8.214261,-0.206931,-0.531704,-36.759476,-35.615047,23.445814,-0.665039,-0.381104,0.112061
829,1020579965,8.435859,-0.542921,-0.947691,-36.466442,-22.767834,23.723625,-0.670410,-0.376221,0.114502
830,1020596632,8.431292,-0.597450,-1.538656,-33.645267,-9.095878,20.898590,-0.670898,-0.369385,0.111572
831,1020613299,8.194591,-0.479606,-1.970887,-33.324364,-6.006221,17.921637,-0.671143,-0.364502,0.108154
832,1020629966,8.214506,-0.403728,-2.624677,-31.687717,-18.453403,17.693285,-0.675537,-0.361572,0.107666
833,1020646633,8.532372,-0.420594,-2.795135,-29.569006,-30.427912,18.105822,-0.678711,-0.357666,0.114014
834,1020663300,8.562326,-0.708550,-2.207286,-25.800192,-40.567726,16.713188,-0.680176,-0.353271,0.118896
835,1020679967,9.407782,-0.932307,-1.512357,-23.734943,-37.913151,13.966550,-0.682617,-0.346436,0.126709
836,1020696634,10.459988,-1.055235,-1.726822,-24.986765,-21.867586,10.006046,-0.685059,-0.344971,0.128174
837,1020713301,10.792896,-1.210927,-2.108718,-26.655508,-13.599378,8.339004,-0.684570,-0.344482,0.131592
838,1020729968,10.873808,-1.424013,-2.229462,-25.115061,-17.938175,9.920365,-0.685547,-0.341553,0.131104
839,1020746635,10.891232,-1.432395,-2.300177,-18.950489,-25.189051,11.707452,-0.687988,-0.338623,0.135986
840,1020763302,10.782275,-1.305808,-2.251083,-11.380224,-27.334408,11.883803,-0.691650,-0.336670,0.143066
841,1020779969,10.772880,-1.203645,-2.306656,-3.605740,-26.220098,9.746202,-0.690186,-0.331299,0.148438
842,1020796636,10.777070,-1.119878,-2.452244,1.750716,-25.488312,7.213777,-0.692627,-0.326904,0.155762
843,1020813303,10.673383,-1.068935,-2.567330,1.698235,-25.914429,6.272085,-0.687256,-0.323975,0.159668
844,1020829970,10.473939,-0.837884,-2.639358,-0.452053,-26.739153,5.855470,-0.688721,-0.324463,0.167969
845,1020846637,10.168756,-0.540834,-2.356188,-2.838368,-26.035069,3.709605,-0.690430,-0.322510,0.177246
846,1020863304,10.002149,-0.434586,-2.279860,-4.630606,-23.264624,0.106094,-0.690918,-0.321777,0.184570
847,1020879971,9.870724,-0.538896,-1.996800,-5.939044,-20.331675,-2.956620,-0.690918,-0.324707,0.187500
848,1020896638,9.881783,-0.992455,-1.990643,-6.738760,-16.052267,-4.841548,-0.689941,-0.325195,0.189941
849,1020913305,9.664278,-1.320657,-2.360392,-5.629649,-9.189535,-6.019167,-0.688232,-0.328125,0.192871
850,1020929972,9.295239,-1.399886,-2.799593,0.376526,-7.959533,-4.695667,-0.689453,-0.328125,0.192383
851,1020946639,9.182657,-1.295367,-3.205158,9.541934,-8.917630,-1.954340,-0.689209,-0.328125,0.197266
852,1020963306,9.195457,-0.904580,-3.409088,17.839376,-7.517375,-1.559700,-0.685303,-0.328125,0.199707
853,1020979973,9.165247,-0.392897,-3.090281,20.946087,-9.582421,-4.722005,-0.690186,-0.327637,0.204590
854,1020996640,8.846423,-0.512700,-2.454583,16.337019,-14.180072,-7.775196,-0.685791,-0.329102,0.209961
855,1021013307,8.679914,-0.891779,-1.586228,7.339117,-15.437165,-9.364475,-0.683105,-0.332764,0.217529
856,1021029974,8.933686,-0.783420,-1.478827,1.280732,-6.087475,-9.824050,-0.683105,-0.334717,0.217041
857,1021046641,9.106221,-0.664598,-1.710191,1.105015,4.923128,-10.242855,-0.683594,-0.335449,0.215088
858,1021063308,9.274267,-1.018218,-1.791906,1.009263,9.788431,-10.634657,-0.687744,-0.336426,0.211670
859,1021079975,9.618429,-1.437226,-2.188851,0.781118,13.499822,-9.783728,-0.683838,-0.341309,0.208984
860,1021096642,10.003739,-1.578822,-3.259348,8.142322,19.233009,-5.763814,-0.678955,-0.344238,0.204102
861,1021113309,10.366576,-1.599642,-3.713935,20.380297,20.585506,-1.900416,-0.683838,-0.342773,0.203125
862,1021129976,10.666994,-1.260219,-3.648237,28.582012,19.981939,0.621693,-0.681396,-0.342285,0.197754
863,1021146643,10.315185,-0.500670,-3.429350,30.267448,17.343964,0.675916,-0.686279,-0.337891,0.198730
864,1021163310,9.875839,-0.094827,-2.993630,25.502411,17.148760,-4.222498,-0.684814,-0.336426,0.196777
865,1021179977,9.946796,0.002434,-2.573479,22.287672,21.550974,-10.387257,-0.687256,-0.340820,0.193848
866,1021196644,10.269128,-0.304593,-2.084941,20.211700,24.303820,-14.687844,-0.686279,-0.344727,0.187500
867,1021213311,10.397520,-1.018891,-1.861287,17.444166,24.047787,-15.093636,-0.682617,-0.346191,0.184082
868,1021229978,10.073991,-1.136188,-2.416804,17.543570,25.528732,-12.524851,-0.681641,-0.352539,0.179199
869,1021246645,9.613899,-0.585870,-3.143750,21.434189,28.650244,-10.090173,-0.683105,-0.351807,0.172363
870,1021263312,8.857562,-0.187222,-2.878911,28.162468,28.227716,-11.634294,-0.681641,-0.350830,0.169922
871,1021279979,8.347001,-0.050689,-1.963169,28.351372,24.900488,-16.339296,-0.681152,-0.355713,0.166016
872,1021296646,8.379781,-0.212139,-1.276516,20.842846,23.570358,-20.947693,-0.677734,-0.360596,0.160156
873,1021313313,8.696180,-0.403904,-0.935353,9.231249,25.959044,-22.721731,-0.671143,-0.366211,0.153320
874,1021329980,9.616446,-0.656663,-0.890451,-1.346338,32.534546,-18.915407,-0.673584,-0.370850,0.143555
875,1021346647,10.661204,-0.221260,-1.811191,-2.285142,43.143196,-10.733614,-0.674561,-0.373779,0.131592
876,1021363314,10.472973,0.145493,-2.865519,7.592845,45.217159,-6.511425,-0.671875,-0.375732,0.119873
877,1021379981,9.566711,0.265138,-2.644727,14.092209,35.867985,-11.777557,-0.673340,-0.375488,0.107666
878,1021396648,9.201194,0.139804,-2.635721,15.079914,27.262716,-19.600773,-0.669434,-0.384277,0.101318
879,1021413315,9.763338,-0.122241,-2.414917,15.439489,19.084806,-21.654352,-0.665283,-0.391846,0.094971
880,1021429982,10.295879,-0.337209,-1.891799,15.972839,14.195836,-20.373186,-0.664795,-0.391846,0.096436
881,1021446649,10.560768,-0.277882,-1.532537,12.937270,12.445596,-20.850893,-0.660889,-0.400635,0.093018
882,1021463316,10.718836,0.077884,-1.398605,8.872561,8.953638,-22.561577,-0.660889,-0.404053,0.091553
883,1021479983,10.635798,0.344539,-1.176529,6.890656,-0.918985,-21.974329,-0.656982,-0.408936,0.087158
884,1021496650,10.325413,0.042773,-1.260930,9.626711,-7.281756,-20.266394,-0.653320,-0.414307,0.089600
885,1021513317,9.489848,0.207504,-1.678146,16.480246,-9.768466,-19.509996,-0.649414,-0.419189,0.096924
886,1021529984,8.461392,0.440103,-1.794407,19.170975,-13.829217,-21.686901,-0.646484,-0.424072,0.103271
887,1021546651,7.782449,0.556041,-1.703712,18.339375,-19.983671,-24.818848,-0.645752,-0.429199,0.110596
888,1021563318,7.361257,0.676699,-1.005741,15.548685,-27.133423,-27.074821,-0.640869,-0.437500,0.119873
889,1021579985,7.881223,0.497100,-0.839841,11.124551,-21.120770,-28.203905,-0.638184,-0.444824,0.126221
890,1021596652,8.856009,0.266917,-1.801951,9.713476,-3.222844,-28.737404,-0.631348,-0.450928,0.126221
891,1021613319,9.429969,0.479475,-1.977808,10.400114,-0.686256,-26.919157,-0.627441,-0.462158,0.130127
892,1021629986,9.936447,0.443604,-1.713430,10.390553,-12.018136,-21.540808,-0.625977,-0.462158,0.134521
893,1021646653,10.154272,0.831553,-2.038333,12.407506,-15.610913,-16.684011,-0.623291,-0.471436,0.145264
894,1021663320,9.583022,1.218679,-2.155795,13.454019,-17.297274,-14.988808,-0.621826,-0.473877,0.145264
895,1021679987,9.131074,0.929520,-1.509294,12.856038,-17.839828,-15.093948,-0.617920,-0.475586,0.155518
896,1021696654,9.548699,0.418676,-1.856643,9.575160,-7.726721,-14.263678,-0.615723,-0.479004,0.159180
897,1021713321,10.020346,0.366979,-2.731805,7.340316,-2.704203,-9.937759,-0.614258,-0.482910,0.159180
898,1021729988,10.553278,0.613844,-2.845014,6.631943,-7.813887,-2.156193,-0.615234,-0.481934,0.164062
899,1021746655,10.830879,1.007714,-2.241326,8.660785,-15.503206,4.856065,-0.614258,-0.483398,0.167480
900,1021763322,10.977375,1.256604,-2.026456,8.681382,-19.055677,6.912194,-0.616699,-0.479980,0.171875
901,1021779989,10.483837,1.606631,-2.120746,7.811292,-20.619299,6.150908,-0.617188,-0.478027,0.179688
902,1021796656,9.688039,1.810982,-2.025088,5.579269,-20.714779,3.628295,-0.615479,-0.478027,0.184082
903,1021813323,9.168348,1.815801,-1.939080,2.621763,-16.494005,0.494063,-0.614990,-0.474609,0.188965
904,1021829990,9.121083,1.432841,-1.840378,0.551090,-15.793404,0.234132,-0.614014,-0.475830,0.193359
905,1021846657,9.155187,0.936370,-1.729322,-0.662896,-14.426632,2.941230,-0.614990,-0.472900,0.196777
906,1021863324,9.062665,0.921892,-1.817211,-4.758892,-7.358147,5.196940,-0.618408,-0.472656,0.198242
907,1021879991,9.200301,1.366559,-2.029233,-9.298439,0.409259,8.307425,-0.615967,-0.468018,0.196777
908,1021896658,9.501346,1.771342,-1.618449,-9.470239,0.733516,10.224616,-0.619873,-0.468262,0.192871
909,1021913325,9.815367,1.631334,-1.133027,-10.606866,3.701402,8.477650,-0.625732,-0.463867,0.191895
910,1021929992,10.051374,1.023641,-1.218664,-14.665960,8.011705,6.034941,-0.623291,-0.464844,0.185547
911,1021946659,10.745836,0.616599,-2.054401,-13.970634,13.987762,6.451535,-0.625000,-0.461914,0.179199
912,1021963326,11.279450,0.965670,-2.279901,-7.709884,18.341253,9.421602,-0.628906,-0.461182,0.174316
913,1021979993,11.469363,1.973395,-2.146290,-2.869216,18.395874,12.043376,-0.631836,-0.457275,0.165527
914,1021996660,11.399890,2.327438,-1.915971,-2.572325,11.348927,11.815988,-0.633057,-0.452393,0.164551
915,1022013327,11.085927,1.735780,-1.386041,-5.636986,2.703518,9.864626,-0.637451,-0.453857,0.159668
916,1022029994,10.704280,1.134845,-1.203846,-11.220676,0.024441,10.418608,-0.634033,-0.447998,0.159668
917,1022046661,10.214256,0.935737,-1.383352,-13.351315,3.345618,12.959779,-0.639893,-0.446045,0.156250
918,1022063328,9.482041,1.259666,-1.439888,-12.554925,5.644565,13.207941,-0.639893,-0.441162,0.152344
919,1022079995,8.845083,1.417623,-1.665913,-17.687136,7.652159,10.847630,-0.641357,-0.438965,0.148926
920,1022096662,8.477850,1.510544,-1.884328,-27.629519,6.375310,11.664862,-0.642578,-0.435059,0.142334
921,1022113329,8.343254,1.428533,-1.651480,-35.098942,2.272914,14.541487,-0.643555,-0.431641,0.132568
922,1022129996,8.380906,1.190835,-1.232058,-37.349926,-1.097908,17.212929,-0.647217,-0.426758,0.129150
923,1022146663,8.507832,1.130435,-1.496307,-39.145260,6.035064,18.490307,-0.650635,-0.420410,0.124268
924,1022163330,8.464833,1.219604,-1.800772,-42.886364,15.319935,17.968580,-0.654053,-0.419678,0.112549
925,1022179997,8.688231,1.122740,-1.527902,-45.105453,16.621021,17.253609,-0.658203,-0.413818,0.101807
926,1022196664,9.637061,1.052443,-1.552172,-43.750629,16.662304,18.595095,-0.658447,-0.406494,0.092041
927,1022213331,10.721890,1.619437,-2.547161,-44.598827,26.716877,19.753054,-0.659424,-0.402832,0.076172
928,1022229998,11.052438,2.492374,-2.890496,-44.898552,31.079092,19.263224,-0.663574,-0.398926,0.058594
929,1022246665,11.045581,2.345764,-1.794129,-40.231148,7.134177,14.392135,-0.665527,-0.393066,0.051758
930,1022263332,11.854074,1.410544,-0.941692,-43.685535,-11.500498,11.710224,-0.668701,-0.386963,0.045410
931,1022279999,11.972745,0.642049,-1.392253,-47.430733,-9.360771,16.244087,-0.666748,-0.384766,0.041992
932,1022296666,10.905746,0.097762,-0.942816,-40.557327,-17.306747,20.798590,-0.670166,-0.377197,0.042480
933,1022313333,10.039798,0.702139,-0.997421,-38.927010,-17.502146,23.140730,-0.673096,-0.373779,0.037598
934,1022330000,8.506964,1.349772,-1.540829,-42.609413,-10.638503,21.609148,-0.673828,-0.365479,0.036621
935,1022346667,7.806691,1.423677,-1.481675,-49.833683,-14.088188,20.065571,-0.676270,-0.361084,0.032227
936,1022363334,7.757680,0.957774,-1.452995,-57.642529,-17.907866,21.220819,-0.682617,-0.352783,0.033203
937,1022380001,7.727761,0.348034,-1.391728,-65.258293,-19.512192,24.839483,-0.684326,-0.345947,0.024902
938,1022396668,8.138981,0.347502,-2.059805,-69.816437,-11.442006,29.781624,-0.687744,-0.334717,0.023438
939,1022413335,8.409456,0.772900,-2.931813,-62.672581,-1.158867,31.810675,-0.693115,-0.326660,0.016113
940,1022430002,8.556285,1.330509,-2.913594,-52.824795,-3.613037,27.519421,-0.692871,-0.316895,0.007812
941,1022446669,9.503404,1.513918,-3.389106,-51.796078,-6.962522,23.118835,-0.702148,-0.308105,0.001221
942,1022463336,10.240681,0.997315,-3.160095,-48.756729,-21.716751,21.737223,-0.705078,-0.301514,0.000732
943,1022480003,10.666285,-0.008988,-2.422513,-43.628071,-44.823250,23.539064,-0.707520,-0.294922,0.010742
944,1022496670,10.621393,-0.577327,-2.482006,-40.072033,-52.165138,27.513496,-0.709473,-0.286133,0.021484
945,1022513337,9.799691,-0.273408,-2.231415,-35.306503,-53.924828,30.105303,-0.714844,-0.279297,0.026855
946,1022530004,8.962718,0.303868,-1.579245,-36.527290,-50.042244,29.309629,-0.719482,-0.269531,0.041992
947,1022546671,8.499384,0.672603,-1.179015,-42.731186,-37.459187,27.630632,-0.726318,-0.260742,0.051758
948,1022563338,8.331890,0.648138,-1.199476,-47.185413,-25.247255,24.120739,-0.726318,-0.251953,0.056152
949,1022580005,8.735226,0.564536,-1.632593,-51.790356,-16.434893,20.734364,-0.728760,-0.245605,0.054688
950,1022596672,9.510553,0.186801,-2.720784,-55.211590,-5.937134,17.683844,-0.730713,-0.240234,0.052246
951,1022613339,10.126315,-0.147137,-3.459611,-52.707104,-9.353505,19.025335,-0.732178,-0.233887,0.050781
952,1022630006,11.288530,-0.519813,-3.829028,-45.700943,-15.667510,21.145563,-0.732422,-0.228027,0.047852
953,1022646673,11.612591,-0.112072,-3.853496,-32.571468,-18.403580,18.806566,-0.736816,-0.222412,0.047363
954,1022663340,11.129401,0.498606,-2.767878,-28.618822,-26.563124,11.837380,-0.741455,-0.219971,0.053223
955,1022680007,10.913823,0.569824,-2.242484,-33.536797,-23.986467,6.343171,-0.741455,-0.216064,0.059082
956,1022696674,10.826033,0.332517,-2.329910,-36.269100,-18.701275,3.253607,-0.737549,-0.214355,0.060547
957,1022713341,10.744578,-0.028055,-2.210944,-36.432171,-16.939924,2.428668,-0.739014,-0.213867,0.061035
958,1022730008,10.526366,-0.420854,-2.056287,-34.477928,-15.589492,2.188738,-0.741455,-0.212891,0.064453
959,1022746675,9.843627,-0.695254,-1.966845,-34.544956,-11.475131,0.089638,-0.741943,-0.210449,0.068604
960,1022763342,9.211522,-0.724918,-2.489485,-34.846630,-7.015900,-0.662501,-0.736084,-0.211426,0.066406
961,1022780009,8.743938,-0.696010,-2.590061,-35.701008,-9.666457,-0.246728,-0.739502,-0.210938,0.064453
962,1022796676,9.014837,-0.388568,-2.716813,-36.262589,-10.486865,2.184857,-0.737549,-0.210938,0.063965
963,1022813343,9.226675,0.075016,-3.039665,-33.115780,-4.201678,2.878412,-0.739502,-0.210449,0.063477
964,1022830010,9.098243,0.418170,-2.725114,-28.198555,-2.439322,-0.774095,-0.741455,-0.207520,0.061523
965,1022846677,9.623133,0.144024,-2.233918,-30.195677,-0.731796,-4.764003,-0.741943,-0.209717,0.060059
966,1022863344,10.268079,-0.879893,-2.393239,-38.540546,0.876196,-4.650895,-0.740723,-0.208252,0.056152
967,1022880011,11.085898,-1.280724,-3.099259,-39.759056,1.294031,-0.320186,-0.742188,-0.210693,0.053711
968,1022896678,11.209588,-0.850883,-3.696845,-28.623016,2.737333,1.571452,-0.741699,-0.209229,0.046875
969,1022913345,10.758998,-0.213874,-3.088605,-18.014406,-1.094842,-0.599799,-0.739746,-0.207764,0.046387
970,1022930012,10.228220,0.299230,-2.580772,-16.259253,-3.835711,-5.048575,-0.742188,-0.207764,0.045898
971,1022946679,9.414541,0.005527,-2.165581,-20.252077,-5.204626,-9.094958,-0.742676,-0.210693,0.048340
972,1022963346,8.912711,-0.593423,-1.738599,-25.688719,-2.859076,-9.254533,-0.738770,-0.210693,0.046387
973,1022980013,8.605567,-0.661778,-2.020753,-27.679714,6.852423,-7.563901,-0.740234,-0.215576,0.043945
974,1022996680,8.127223,-0.682824,-2.588265,-25.840437,17.234802,-6.737239,-0.733887,-0.214111,0.035645
975,1023013347,7.881584,-0.584460,-2.894630,-22.157671,27.040363,-8.162867,-0.735596,-0.218018,0.024902
976,1023030014,8.130876,-0.295269,-3.120385,-19.602209,37.304180,-10.324971,-0.735107,-0.220947,0.016602
977,1023046681,8.515221,-0.344572,-3.064294,-19.455791,39.950832,-10.731531,-0.732910,-0.221924,0.006348
978,1023063348,9.366984,-0.551968,-3.185055,-20.427015,38.657280,-8.650929,-0.729492,-0.220947,-0.011475
979,1023080015,10.080190,-0.776287,-3.196915,-18.735950,37.998676,-3.779396,-0.729248,-0.222656,-0.022705
980,1023096682,10.398008,-0.791469,-2.991923,-12.622562,38.820660,-1.587177,-0.727783,-0.222168,-0.031982
981,1023113349,10.113957,-0.800208,-2.577033,-5.811785,40.044449,-3.878220,-0.723145,-0.219238,-0.050049
982,1023130016,9.694547,-0.789487,-2.102417,-4.277938,42.904343,-8.125734,-0.723633,-0.222656,-0.060059
983,1023146683,9.463397,-0.629758,-1.889037,-5.608999,48.319233,-10.641081,-0.720947,-0.221680,-0.072266
984,1023163350,9.318057,-0.854339,-1.820791,-2.422207,54.876274,-13.284432,-0.713379,-0.229492,-0.089844
985,1023180017,9.336468,-1.258505,-1.832118,5.503468,58.837681,-17.442263,-0.710449,-0.231934,-0.107422
986,1023196684,9.251608,-1.231884,-1.792518,13.640643,58.824142,-21.408915,-0.705322,-0.233398,-0.125244
987,1023213351,9.092545,-1.159472,-1.916861,16.943604,55.516273,-23.403902,-0.699219,-0.241211,-0.136963
988,1023230018,9.028979,-0.990695,-2.470130,21.555311,51.895386,-23.990889,-0.692871,-0.247070,-0.151611
989,1023246685,8.838977,-0.834249,-2.921838,29.388668,50.227219,-25.985466,-0.689209,-0.258789,-0.164795
990,1023263352,8.603470,-0.833923,-3.042675,40.111969,47.135056,-30.930826,-0.682861,-0.265137,-0.174805
991,1023280019,8.590399,-0.794588,-2.756044,49.541386,41.045971,-36.834904,-0.677979,-0.278809,-0.179199
992,1023296686,9.006730,-0.706784,-2.342846,55.395340,35.501236,-41.415649,-0.666260,-0.292969,-0.185547
993,1023313353,9.693040,-0.599993,-1.685373,58.825382,32.055557,-43.396957,-0.663330,-0.310547,-0.187988
994,1023330020,10.420860,-0.499554,-0.759289,58.004951,31.295589,-43.988647,-0.657471,-0.324951,-0.188965
995,1023346687,11.174778,-0.100216,-0.010363,57.511082,33.701679,-41.317001,-0.652100,-0.342285,-0.196289
996,1023363354,12.310950,-0.574005,-0.580361,65.529320,38.681686,-37.095215,-0.643066,-0.355713,-0.196777
997,1023380021,12.348831,-1.026201,-2.771610,84.910141,50.133312,-33.404816,-0.633789,-0.370361,-0.197266
998,1023396688,11.087554,-1.522071,-2.514031,98.109940,40.032482,-35.034092,-0.626953,-0.386963,-0.197266
999,1023413355,9.454697,-1.115580,-1.544794,95.703270,28.580091,-38.634960,-0.617432,-0.403809,-0.191406
1000,1023430022,8.166162,0.389620,-0.899018,77.319298,16.967527,-41.670856,-0.610107,-0.418945,-0.187012
1001,1023446689,9.127395,0.653711,-0.734755,56.825233,8.326551,-37.329445,-0.605469,-0.429443,-0.178711
1002,1023463356,10.248867,0.340671,-1.204040,56.950611,6.127857,-29.418779,-0.597656,-0.443604,-0.176758
1003,1023480023,10.147468,0.284137,-1.863600,71.350449,6.985032,-29.387583,-0.592529,-0.454834,-0.165527
1004,1023496690,9.695033,0.475055,-2.080670,87.917488,7.882079,-34.562927,-0.588623,-0.466797,-0.153076
1005,1023513357,9.652586,0.223572,-1.492115,99.254845,5.682459,-36.735275,-0.579102,-0.483887,-0.144287
1006,1023530024,10.027728,-0.235009,-1.213598,98.958817,7.879458,-34.768044,-0.572510,-0.499756,-0.128174
1007,1023546691,9.832282,-0.110853,-1.123468,89.998566,15.132135,-30.159691,-0.568848,-0.510498,-0.117432
1008,1023563358,9.688385,0.454754,-1.112730,80.552444,15.902933,-25.104591,-0.562988,-0.523682,-0.109619
1009,1023580025,9.973656,0.861350,-1.043803,74.478203,13.129468,-20.052654,-0.556396,-0.531738,-0.099854
1010,1023596692,10.254275,0.867653,-0.597474,71.877556,10.190871,-16.530798,-0.551025,-0.540039,-0.092041
1011,1023613359,10.447677,0.741355,-0.602483,70.606468,14.724105,-14.274562,-0.553223,-0.543457,-0.078613
1012,1023630026,10.371097,0.712369,-0.600932,64.922173,16.979403,-11.938377,-0.550293,-0.551758,-0.075684
1013,1023646693,10.536169,0.743836,-0.800551,59.286766,19.669249,-9.240859,-0.547119,-0.556885,-0.067871
1014,1023663360,10.571309,0.469966,-1.061439,58.791279,18.213045,-6.627452,-0.545166,-0.559814,-0.063965
1015,1023680027,9.894271,0.127052,-1.035216,61.454792,13.167974,-5.557445,-0.544189,-0.562744,-0.056152
1016,1023696694,8.744114,-0.164150,-0.408851,66.808113,3.801452,-4.355649,-0.542480,-0.564697,-0.045898
1017,1023713361,8.261343,-0.362824,-0.339055,61.640060,5.147268,-3.511446,-0.542969,-0.571533,-0.035645
1018,1023730028,8.104959,-0.179531,-0.972047,49.258167,18.459282,-0.422921,-0.542725,-0.571777,-0.031250
1019,1023746695,9.011094,0.489704,-0.962092,34.406937,30.655340,3.420532,-0.542236,-0.573486,-0.033203
1020,1023763362,11.101057,1.154164,-1.350943,20.370470,39.406590,10.092366,-0.543457,-0.573486,-0.036133
1021,1023780029,12.609001,1.285892,-1.234533,25.892933,28.937353,16.956362,-0.542969,-0.566650,-0.040039
1022,1023796696,12.995193,0.399985,-0.286252,34.230118,3.775659,19.016554,-0.547363,-0.565674,-0.039551
1023,1023813363,12.305416,-0.545918,-0.473031,29.446274,0.628148,19.357208,-0.549316,-0.564209,-0.036133
1024,1023830030,10.490748,-0.905536,-0.488427,31.084850,0.881151,19.676182,-0.554199,-0.557373,-0.030762
1025,1023846697,9.123879,-0.766372,0.145169,33.377865,-4.197573,19.202616,-0.556152,-0.554443,-0.028320
1026,1023863364,8.577170,-0.264575,-0.472199,29.720140,4.278358,18.263363,-0.561768,-0.553467,-0.021240
1027,1023880031,8.138482,0.039662,-1.020628,23.851372,10.042381,16.466360,-0.563232,-0.550049,-0.021729
1028,1023896698,8.420542,0.260607,-0.975035,19.317142,6.480328,13.683863,-0.564209,-0.546143,-0.017822
1029,1023913365,8.964385,0.407266,-1.150579,15.579800,3.226110,13.619157,-0.567627,-0.542236,-0.018311
1030,1023930032,9.318877,0.347944,-1.566402,17.358715,0.167053,17.551029,-0.570068,-0.538818,-0.016357
1031,1023946699,9.338992,-0.163154,-1.322092,20.213015,-3.476319,19.183344,-0.575928,-0.534668,-0.016357
1032,1023963366,9.374384,-0.313867,-1.289296,22.977610,0.197225,17.229120,-0.577393,-0.529297,-0.011475
1033,1023980033,9.274804,-0.340279,-1.605242,27.675928,1.973305,14.150778,-0.578369,-0.526855,-0.005615
1034,1023996700,9.549813,-0.514234,-1.817344,34.641945,-3.556622,11.418854,-0.585693,-0.524902,-0.003174
1035,1024013367,10.112226,-0.698657,-1.987521,41.964260,-11.649329,10.825881,-0.587402,-0.525879,0.003662
1036,1024030034,10.582190,-0.788699,-1.794651,45.815201,-19.102064,12.922514,-0.591309,-0.524414,0.015381
1037,1024046701,10.720977,-0.862877,-1.229252,44.636684,-25.066982,15.828496,-0.596924,-0.520508,0.029785
1038,1024063368,10.704536,-0.904509,-0.917821,40.076786,-26.998699,17.618776,-0.598389,-0.516602,0.043945
1039,1024080035,10.590368,-0.812480,-1.223342,34.282959,-21.171047,16.479532,-0.603027,-0.510742,0.054199
1040,1024096702,10.069513,-0.884551,-1.379184,34.421848,-17.490345,11.274383,-0.606445,-0.512207,0.063477
1041,1024113369,9.963902,-0.937842,-1.497357,36.814232,-17.729486,5.728603,-0.604980,-0.507812,0.072266
1042,1024130036,10.394834,-0.939144,-1.658265,37.536232,-18.536539,3.008378,-0.608154,-0.508789,0.082520
1043,1024146703,10.846538,-0.850875,-1.937550,37.298717,-18.572239,2.866469,-0.609619,-0.508301,0.094971
1044,1024163370,10.950571,-0.686523,-1.876752,39.345806,-19.587763,2.754991,-0.609375,-0.507080,0.102783
1045,1024180037,10.821061,-0.713675,-1.765260,42.860344,-18.920900,-0.432269,-0.609375,-0.503662,0.115479
1046,1024196704,10.355463,-0.876660,-1.557070,47.506130,-18.027163,-4.366480,-0.606689,-0.506592,0.126709
1047,1024213371,10.163359,-1.183415,-1.480473,50.387283,-15.035162,-7.561891,-0.608154,-0.506592,0.136963
1048,1024230038,9.934724,-1.388434,-1.622099,52.306808,-9.949715,-10.393230,-0.604980,-0.505859,0.149170
1049,1024246705,9.987376,-1.340108,-1.728264,54.185696,-9.729962,-10.173207,-0.601562,-0.511230,0.160156
1050,1024263372,10.031167,-1.160394,-1.434978,53.900208,-11.020201,-8.229039,-0.601318,-0.509277,0.170410
1051,1024280039,10.183437,-1.076558,-1.393870,52.297413,-6.188475,-7.206884,-0.600342,-0.514893,0.178711
1052,1024296706,10.339129,-0.826294,-1.933877,53.205757,-0.582720,-7.833058,-0.598389,-0.513428,0.188965
1053,1024313373,10.379220,-0.527617,-2.093250,53.402607,-2.168522,-9.243898,-0.599121,-0.514404,0.198242
1054,1024330040,10.237209,-0.417082,-1.688260,51.840042,-6.647408,-10.956775,-0.601074,-0.515381,0.204590
1055,1024346707,10.272208,-0.537790,-1.269294,48.995502,-5.163491,-13.067540,-0.598389,-0.517334,0.212891
1056,1024363374,10.204317,-0.818308,-1.119134,50.330227,-0.387614,-13.870115,-0.596924,-0.521484,0.219238
1057,1024380041,10.156597,-1.069112,-0.958113,53.047005,1.518907,-13.663342,-0.595215,-0.522949,0.232178
1058,1024396708,10.012674,-1.039021,-1.431640,53.714680,8.039998,-12.911415,-0.589844,-0.520996,0.236572
1059,1024413375,9.605597,-0.810052,-1.865178,54.217655,13.032702,-11.280869,-0.589355,-0.520996,0.241943
1060,1024430042,9.602926,-0.702285,-1.756339,54.010555,14.518525,-9.122911,-0.588867,-0.523926,0.242432
1061,1024446709,9.860836,-0.720588,-1.595104,53.373440,19.083372,-9.342071,-0.586914,-0.522705,0.251221
1062,1024463376,10.027749,-0.795850,-1.568895,53.793278,23.566420,-10.821756,-0.586914,-0.523682,0.251709
1063,1024480043,10.191959,-1.072981,-1.477920,54.282501,25.824751,-12.505811,-0.584961,-0.524658,0.253174
1064,1024496710,10.489424,-1.359603,-1.642315,52.233345,28.746357,-13.294446,-0.585693,-0.523193,0.256592
1065,1024513377,10.720077,-1.257526,-2.233901,52.071438,30.091990,-10.668342,-0.583008,-0.524658,0.253662
1066,1024530044,10.683505,-1.109673,-2.467562,53.921978,27.895792,-8.788818,-0.583008,-0.525635,0.254150
1067,1024546711,10.554338,-0.642335,-2.374418,57.077984,26.543186,-8.696366,-0.585693,-0.524170,0.257568
1068,1024563378,10.305734,-0.339918,-2.076900,60.429661,23.544479,-10.694670,-0.586182,-0.522705,0.261963
1069,1024580045,9.903787,-0.205022,-1.735464,62.541271,18.990751,-13.394383,-0.583740,-0.524658,0.263428
1070,1024596712,10.025835,-0.274634,-1.502066,62.688671,16.996658,-15.103125,-0.580322,-0.520996,0.268311
1071,1024613379,10.150806,-0.374368,-1.359463,63.549309,19.580782,-17.220036,-0.580322,-0.525391,0.275146
1072,1024630046,9.956154,-0.203785,-1.280967,64.088860,20.625526,-19.121710,-0.580566,-0.526855,0.281006
1073,1024646713,9.724266,0.061992,-1.271656,63.455696,18.078714,-21.114967,-0.579590,-0.526367,0.283936
1074,1024663380,9.530165,0.292508,-1.366178,61.601414,16.527960,-24.020420,-0.574219,-0.527344,0.293213
1075,1024680047,9.402727,0.547940,-1.395134,60.340904,14.071481,-26.846357,-0.571777,-0.532227,0.296143
1076,1024696714,9.282015,0.725120,-1.288782,58.020859,9.590019,-28.690254,-0.569092,-0.536865,0.301514
1077,1024713381,9.404722,0.686946,-1.234302,57.670429,1.989489,-28.806143,-0.560303,-0.537354,0.312744
1078,1024730048,9.455729,0.438905,-1.208543,55.820435,-1.192172,-27.240658,-0.558105,-0.541016,0.322021
1079,1024746715,9.430250,0.422709,-1.091404,54.149937,-0.794900,-23.765472,-0.553711,-0.545410,0.333008
1080,1024763382,9.546333,0.616639,-1.239812,51.789085,1.218659,-19.009447,-0.552979,-0.546875,0.342285
1081,1024780049,9.490935,0.884796,-1.400260,49.467949,-0.096330,-15.233375,-0.550049,-0.544678,0.348633
1082,1024796716,9.440999,1.071113,-1.253480,41.963703,-4.553201,-12.314504,-0.541260,-0.545166,0.353027
1083,1024813383,9.452861,1.107052,-1.580866,35.194630,-4.041242,-9.525420,-0.545166,-0.543701,0.360352
1084,1024830050,9.741124,0.901615,-1.551365,30.437778,-3.784289,-4.879863,-0.540771,-0.549316,0.365234
1085,1024846717,10.445440,0.913241,-1.506863,25.727510,-1.305380,1.034711,-0.543457,-0.541992,0.372070
1086,1024863384,10.771405,1.230872,-1.374628,19.760733,-0.221256,6.109234,-0.542969,-0.541504,0.375488
1087,1024880051,10.804136,1.222334,-0.908415,18.956160,-4.192395,6.030089,-0.544922,-0.537598,0.375000
1088,1024896718,10.844481,0.922466,-0.608867,18.066654,-6.805996,4.640138,-0.545898,-0.536133,0.378906
1089,1024913385,10.751470,0.803458,-0.492010,15.023214,-4.228060,6.335058,-0.547852,-0.531738,0.383789
1090,1024930052,10.518013,0.944568,-0.259951,11.822788,-3.034480,10.440763,-0.548340,-0.529297,0.384277
1091,1024946719,10.288877,1.105767,-0.370384,7.091003,-0.418384,13.045896,-0.551758,-0.526367,0.386230
1092,1024963386,9.863354,1.321933,-0.536062,2.679558,3.359371,14.270980,-0.554199,-0.520264,0.383789
1093,1024980053,9.604316,1.339827,-0.585355,-0.649359,4.079806,14.224915,-0.559082,-0.517334,0.382324
1094,1024996720,9.538925,1.113715,-0.631003,-1.962409,3.427886,15.446054,-0.562012,-0.514893,0.378906
1095,1025013387,9.387358,0.769036,-0.408889,2.072012,-0.968481,17.895185,-0.563721,-0.512939,0.377441
1096,1025030054,9.186651,0.658603,-0.362124,3.809606,0.627032,18.614382,-0.567627,-0.506104,0.379883
1097,1025046721,8.849167,1.067802,-0.880173,-0.167994,7.141901,19.224274,-0.573486,-0.502930,0.375977
1098,1025063388,8.755394,1.260354,-0.951725,-1.426450,7.809266,19.387646,-0.578369,-0.497070,0.373047
1099,1025080055,9.373548,1.300435,-0.650386,-5.436754,7.267162,20.864880,-0.581299,-0.493164,0.365723
1100,1025096722,10.015471,1.274468,-0.775272,-9.183393,7.366609,24.573967,-0.586182,-0.486084,0.364258
1101,1025113389,10.276037,0.841563,-0.850090,-9.448220,5.972292,27.654982,-0.585938,-0.480713,0.357422
1102,1025130056,10.364287,0.541314,-1.040962,-7.402455,8.753920,29.811861,-0.592773,-0.476807,0.353027
1103,1025146723,10.410222,0.548068,-1.163839,-6.929146,10.897573,30.556675,-0.602051,-0.469238,0.348633
1104,1025163390,10.414351,0.849746,-0.825244,-7.092937,7.542691,30.010984,-0.604248,-0.462402,0.342773
1105,1025180057,10.458423,1.036539,-0.488592,-8.903068,3.626456,29.793051,-0.610107,-0.455078,0.340332
1106,1025196724,10.276377,0.961093,-0.522519,-13.238447,-2.720092,28.917723,-0.614014,-0.452637,0.336914
1107,1025213391,10.119544,0.691876,-0.620889,-19.025808,-6.387706,28.668678,-0.617432,-0.442627,0.334473
1108,1025230058,9.851470,0.499545,-1.032215,-22.587173,-6.264514,29.623535,-0.621582,-0.438232,0.331055
1109,1025246725,9.361574,0.503094,-1.253783,-21.904985,-6.941051,30.210846,-0.624023,-0.431885,0.326660
1110,1025263392,8.807326,0.578083,-1.263425,-20.108263,-9.531029,28.789709,-0.631348,-0.423584,0.328613
1111,1025280059,8.360667,0.528412,-1.310548,-20.077053,-12.971329,26.439436,-0.626953,-0.422119,0.322754
1112,1025296726,8.069710,0.490294,-1.478204,-23.807606,-13.788253,24.616413,-0.632324,-0.415283,0.325684
1113,1025313393,8.116442,0.501110,-1.657940,-29.970318,-15.555479,23.595940,-0.641602,-0.411133,0.322266
1114,1025330060,8.548764,0.384796,-1.641862,-35.455280,-16.905596,24.011545,-0.637451,-0.405273,0.320801
1115,1025346727,9.124195,-0.003247,-1.575358,-34.644043,-17.954025,25.470339,-0.645752,-0.403320,0.323730
1116,1025363394,9.431190,-0.311265,-1.288194,-30.458580,-17.749781,25.526854,-0.646729,-0.400391,0.318848
1117,1025380061,9.649025,-0.048168,-1.420900,-27.593658,-17.284534,24.358324,-0.649658,-0.392578,0.320801
1118,1025396728,9.616499,0.237269,-1.588150,-24.992472,-17.712309,21.825363,-0.650635,-0.387207,0.319824
1119,1025413395,9.697429,0.184213,-1.325335,-20.556967,-20.761551,19.630085,-0.651123,-0.384766,0.319336
1120,1025430062,10.155554,-0.025660,-1.061638,-16.806675,-20.488756,16.846203,-0.655518,-0.379395,0.325195
1121,1025446729,10.817263,-0.080492,-1.095261,-17.437859,-13.607793,14.351454,-0.655518,-0.376465,0.325195
1122,1025463396,11.493361,0.188534,-1.599568,-19.603771,-8.135226,12.947805,-0.656982,-0.377930,0.326172
1123,1025480063,11.837135,0.463576,-1.793485,-21.260130,-11.590493,11.414181,-0.657471,-0.377441,0.323730
1124,1025496730,11.717821,0.437134,-1.397503,-19.686365,-24.320053,8.461538,-0.654053,-0.374512,0.329102
1125,1025513397,11.291620,-0.036107,-0.977374,-17.423548,-36.213570,4.284715,-0.651611,-0.372559,0.330566
1126,1025530064,10.651363,-0.462619,-0.754869,-15.908267,-37.521450,1.449373,-0.653320,-0.372559,0.340332
1127,1025546731,9.750016,-0.518169,-0.796353,-15.381953,-31.968731,0.717050,-0.649902,-0.373291,0.342773
1128,1025563398,9.258400,-0.231801,-0.897756,-16.121756,-27.138981,0.666656,-0.648926,-0.374756,0.349609
1129,1025580065,9.255406,-0.061383,-1.232182,-18.408098,-19.619492,0.307500,-0.644531,-0.374268,0.354004
1130,1025596732,9.190804,-0.036605,-1.989892,-18.018579,-13.194751,0.613009,-0.647461,-0.378174,0.352539
1131,1025613399,9.147021,-0.289523,-1.967171,-13.510039,-13.524740,0.546621,-0.645508,-0.376709,0.354492
1132,1025630066,9.230457,-0.316983,-1.832780,-8.840730,-10.827496,-0.471389,-0.645508,-0.377686,0.353027
1133,1025646733,9.293963,-0.238144,-1.709286,-5.805901,-7.345659,-2.227588,-0.645508,-0.378174,0.356934
1134,1025663400,9.409988,-0.170103,-1.346414,-6.860747,-5.302803,-3.876368,-0.645020,-0.380615,0.354980
1135,1025680067,9.472258,0.073063,-1.268248,-9.625448,-1.184408,-3.695196,-0.642090,-0.381592,0.357910
1136,1025696734,9.417048,-0.224953,-1.413153,-12.037044,4.615213,-4.022618,-0.641602,-0.385010,0.351562
1137,1025713401,9.428468,-0.452943,-1.453683,-8.072119,12.017752,-5.246049,-0.641113,-0.383545,0.346191
1138,1025730068,9.724884,-0.417582,-1.718456,-2.696330,18.019501,-5.848271,-0.644043,-0.390869,0.342285
1139,1025746735,10.249864,-0.112128,-1.844660,0.702269,18.246170,-6.396255,-0.645020,-0.388428,0.337891
1140,1025763402,10.831442,0.074605,-1.585366,1.187618,17.961216,-6.648706,-0.647949,-0.390625,0.334473
1141,1025780069,11.306048,-0.091391,-1.399092,1.144562,13.942150,-5.755665,-0.650146,-0.388672,0.324707
1142,1025796736,11.527230,-0.359532,-1.469499,1.890980,9.435971,-3.776799,-0.645264,-0.392090,0.320801
1143,1025813403,11.261653,-0.310045,-1.286633,7.320591,2.080680,-2.788173,-0.645752,-0.391602,0.319824
1144,1025830070,10.952840,-0.194267,-1.194841,13.343579,-0.283776,-4.236305,-0.649658,-0.392090,0.328613
1145,1025846737,10.276948,0.003900,-1.404465,19.471128,3.422035,-8.032244,-0.647217,-0.392090,0.324707
1146,1025863404,9.507833,0.094270,-1.221279,23.600990,2.139428,-12.000464,-0.647705,-0.389160,0.325195
1147,1025880071,9.121685,0.052444,-1.133317,25.612503,0.137406,-14.963934,-0.643311,-0.391602,0.329590
1148,1025896738,8.864738,-0.021321,-1.180078,26.762007,1.264894,-16.986250,-0.640137,-0.394287,0.332031
1149,1025913405,8.608362,-0.022316,-1.494731,27.349159,3.203015,-17.443466,-0.638672,-0.394287,0.333984
1150,1025930072,8.521158,-0.055872,-1.892322,27.633423,4.964855,-17.436028,-0.636230,-0.399170,0.337402
1151,1025946739,8.553896,-0.081536,-1.935589,27.474169,5.437937,-17.667351,-0.636230,-0.399658,0.339844
1152,1025963406,8.980876,-0.100270,-2.121352,26.630499,5.477777,-17.705496,-0.637695,-0.402100,0.338867
1153,1025980073,9.370334,-0.002226,-1.827010,29.863684,1.876759,-17.291664,-0.635254,-0.404053,0.344238
1154,1025996740,9.842858,0.139761,-1.505634,34.807819,-2.535747,-16.291656,-0.632324,-0.405518,0.347168
1155,1026013407,9.933716,0.124058,-1.308723,38.784184,-3.270558,-18.489302,-0.628174,-0.404785,0.351074
1156,1026030074,9.656780,0.548795,-1.508972,38.228752,-1.372914,-22.884928,-0.628174,-0.407227,0.359863
1157,1026046741,9.326447,1.191683,-1.759953,31.748318,-2.597553,-26.204140,-0.625244,-0.414551,0.362793
1158,1026063408,9.394952,1.311410,-1.734219,24.477205,-7.454318,-26.637346,-0.622803,-0.414551,0.366211
1159,1026080075,9.980067,0.764862,-1.596648,22.532774,-11.421558,-24.890902,-0.614258,-0.420166,0.376465
