sep=,
DeviceTag:,upperarm
FirmwareVersion:,3.0.0
AppVersion:,2023.6.0
SyncStatus:,Synced
OutputRate:,60Hz
FilterProfile:,General
Measurement Mode:,Inertial data Mode - Rate Quantities(with mag)
StartTime: ,2024-12-16_16:26:02_337 CET
© Movella Technologies B. V. 2005-2024

PacketCounter,SampleTimeFine,Acc_X,Acc_Y,Acc_Z,Gyr_X,Gyr_Y,Gyr_Z,Mag_X,Mag_Y,Mag_Z
1,1006779689,9.520390,-0.383664,-2.724532,0.834980,0.573705,-0.398777,-0.794189,-0.178955,0.388672
2,1006796356,9.509107,-0.353129,-2.695147,0.832995,0.308729,-0.294085,-0.787354,-0.179932,0.387695
3,1006813023,9.549425,-0.357853,-2.678397,0.541382,0.286382,-0.135069,-0.792236,-0.179443,0.391113
4,1006829690,9.582784,-0.383602,-2.704203,0.485610,0.382442,0.136151,-0.791748,-0.180908,0.387695
5,1006846357,9.573789,-0.392463,-2.669567,0.437151,0.577586,0.289302,-0.789795,-0.180420,0.390137
6,1006863024,9.553184,-0.399262,-2.700994,0.374938,0.727561,0.273524,-0.789307,-0.178955,0.389160
7,1006879691,9.532155,-0.396834,-2.716659,0.396305,0.628830,0.319531,-0.791260,-0.180908,0.389648
8,1006896358,9.557532,-0.403875,-2.694854,0.300712,0.538603,0.259770,-0.791260,-0.178467,0.390625
9,1006913025,9.608326,-0.418735,-2.665330,0.210965,0.610472,0.188490,-0.788818,-0.176025,0.388672
10,1006929692,9.608484,-0.426997,-2.679497,0.412729,0.984559,0.096438,-0.791748,-0.181396,0.389648
11,1006946359,9.525789,-0.404140,-2.647361,0.346879,1.244912,0.277879,-0.789307,-0.177979,0.389648
12,1006963026,9.490968,-0.438762,-2.631125,0.375476,0.883171,0.485162,-0.791260,-0.177979,0.389160
13,1006979693,9.472540,-0.437699,-2.619579,0.461022,0.359775,0.470512,-0.792236,-0.180908,0.384766
14,1006996360,9.531930,-0.446947,-2.661038,0.521353,-0.223829,0.598319,-0.791748,-0.179443,0.389160
15,1007013027,9.570907,-0.443965,-2.674012,0.591250,-0.273262,0.444771,-0.794678,-0.175537,0.388184
16,1007029694,9.545448,-0.415391,-2.651535,0.608515,0.040088,0.247397,-0.792725,-0.178955,0.385742
17,1007046361,9.539454,-0.367205,-2.677253,0.187927,0.142836,-0.166867,-0.794189,-0.180420,0.388184
18,1007063028,9.531143,-0.386763,-2.662071,-0.191621,0.154899,-0.252183,-0.791260,-0.179443,0.388672
19,1007079695,9.563672,-0.410488,-2.661034,-0.349114,-0.015573,-0.294316,-0.793213,-0.177979,0.385254
20,1007096362,9.591377,-0.418180,-2.634578,-0.299848,0.023621,-0.215147,-0.790771,-0.177490,0.386230
21,1007113029,9.580119,-0.426477,-2.658241,-0.188420,0.242443,0.135382,-0.792725,-0.177979,0.386230
22,1007129696,9.510837,-0.423602,-2.645120,0.104135,-0.062636,0.477171,-0.790283,-0.179932,0.386230
23,1007146363,9.544086,-0.416417,-2.614011,0.054869,-0.229733,0.687515,-0.794189,-0.176514,0.389160
24,1007163030,9.514732,-0.429342,-2.629431,-0.071536,-0.230937,0.665066,-0.793213,-0.176514,0.385742
25,1007179697,9.538536,-0.458495,-2.604738,-0.198870,-0.336602,0.424729,-0.793701,-0.177490,0.387695
26,1007196364,9.499659,-0.454168,-2.602552,-0.084368,-0.298247,0.170779,-0.794189,-0.178955,0.387695
27,1007213031,9.482206,-0.455482,-2.613054,-0.288540,-0.712430,0.633946,-0.792725,-0.177002,0.388672
28,1007229698,9.513174,-0.491008,-2.616169,-0.153907,-1.143658,0.842843,-0.792725,-0.178955,0.385742
29,1007246365,9.529532,-0.486559,-2.623308,0.126969,-1.290854,0.757528,-0.796143,-0.180420,0.384766
30,1007263032,9.532923,-0.446380,-2.662324,0.099012,-1.470732,0.554573,-0.791260,-0.178955,0.387695
31,1007279699,9.539576,-0.424912,-2.676824,-0.276092,-1.453879,0.304042,-0.793213,-0.177002,0.388184
32,1007296366,9.543187,-0.453324,-2.700977,-0.559189,-1.391871,0.033098,-0.791748,-0.176514,0.389160
33,1007313033,9.570394,-0.473911,-2.739363,-0.645376,-1.423272,-0.237404,-0.789795,-0.177490,0.389160
34,1007329700,9.597868,-0.496067,-2.730331,-0.599388,-1.254228,-0.357412,-0.791260,-0.180420,0.389160
35,1007346367,9.597189,-0.492081,-2.758651,-0.294149,-0.934351,-0.276015,-0.792725,-0.178955,0.387207
36,1007363034,9.596065,-0.483453,-2.722005,-0.056681,-0.731844,-0.190341,-0.789795,-0.177490,0.388184
37,1007379701,9.564004,-0.469528,-2.734976,0.051654,-0.559650,-0.224598,-0.792236,-0.177002,0.386230
38,1007396368,9.551682,-0.455466,-2.707493,-0.002484,-0.509052,-0.327740,-0.789795,-0.176514,0.387695
39,1007413035,9.545813,-0.442498,-2.730656,-0.012704,-0.546396,-0.444483,-0.792725,-0.181396,0.389648
40,1007429702,9.553297,-0.452705,-2.708827,-0.113682,-0.449759,-0.506401,-0.791260,-0.181396,0.388672
41,1007446369,9.571279,-0.471712,-2.729590,0.044214,-0.328598,-0.447134,-0.790771,-0.178955,0.388672
42,1007463036,9.591787,-0.459028,-2.717109,0.272526,-0.059588,-0.447672,-0.792236,-0.179443,0.389160
43,1007479703,9.588445,-0.436852,-2.717420,0.496867,0.172700,-0.312347,-0.791748,-0.181396,0.391113
44,1007496370,9.598619,-0.426292,-2.701739,0.412691,0.383480,-0.162103,-0.792725,-0.177490,0.392090
45,1007513037,9.584598,-0.424631,-2.700995,0.255480,0.600880,-0.172937,-0.791748,-0.177979,0.389160
46,1007529704,9.562621,-0.431253,-2.674165,0.233695,0.782683,-0.202700,-0.790771,-0.178955,0.388184
47,1007546371,9.554482,-0.434248,-2.638295,-0.080975,0.934101,-0.157621,-0.794189,-0.179932,0.388672
48,1007563038,9.549920,-0.438605,-2.635252,-0.543476,1.104938,-0.129575,-0.790283,-0.178955,0.387207
49,1007579705,9.501258,-0.439264,-2.639045,-1.109158,1.075151,-0.191020,-0.792725,-0.178467,0.386719
50,1007596372,9.525814,-0.462591,-2.660093,-1.949613,0.873207,-0.140537,-0.794678,-0.180908,0.387695
51,1007613039,9.572365,-0.530222,-2.695366,-2.592313,0.715420,-0.554502,-0.791748,-0.179932,0.383789
52,1007629706,9.639483,-0.590949,-2.683347,-2.918080,0.857315,-0.853108,-0.790771,-0.179443,0.383789
53,1007646373,9.707407,-0.610337,-2.655526,-2.941068,1.434049,-1.203118,-0.792725,-0.180420,0.387207
54,1007663040,9.654242,-0.633883,-2.656582,-2.857020,2.209134,-1.351147,-0.793701,-0.181885,0.388184
55,1007679707,9.562519,-0.646753,-2.645381,-3.102172,2.671923,-1.344295,-0.795654,-0.181396,0.381836
56,1007696374,9.518265,-0.714336,-2.686104,-2.700258,2.320774,-1.772309,-0.791260,-0.183350,0.382812
57,1007713041,9.550216,-0.759158,-2.690854,-1.947500,1.946482,-2.036299,-0.796387,-0.183105,0.378906
58,1007729708,9.637781,-0.808177,-2.700272,-0.613219,2.111287,-2.474571,-0.793213,-0.185303,0.382324
59,1007746375,9.637622,-0.844608,-2.686421,1.255835,2.932110,-3.130576,-0.793213,-0.185303,0.380371
60,1007763042,9.570121,-0.745981,-2.607109,3.140610,3.553500,-3.990843,-0.792236,-0.184814,0.379883
61,1007779709,9.536036,-0.620294,-2.600829,4.810790,3.419635,-4.884074,-0.795410,-0.185547,0.377441
62,1007796376,9.568961,-0.426709,-2.569122,5.598969,3.217346,-4.979532,-0.790283,-0.186768,0.378906
63,1007813043,9.560136,-0.280594,-2.530248,5.195057,3.418432,-4.334553,-0.792236,-0.189209,0.377930
64,1007829710,9.508129,-0.272655,-2.551303,3.854578,3.813021,-3.546860,-0.791504,-0.187256,0.376953
65,1007846377,9.413856,-0.454930,-2.584739,2.769828,3.356448,-3.439862,-0.791748,-0.186768,0.378418
66,1007863044,9.480394,-0.632803,-2.571410,3.167171,2.597006,-4.210459,-0.792480,-0.185791,0.377441
67,1007879711,9.515616,-0.659715,-2.579065,4.295859,2.407050,-4.704606,-0.794189,-0.190430,0.375977
68,1007896378,9.547031,-0.601840,-2.570384,5.030136,2.866567,-4.413222,-0.790771,-0.191650,0.381348
69,1007913045,9.523456,-0.595854,-2.536272,4.990923,3.133260,-3.535321,-0.794189,-0.187988,0.378418
70,1007929712,9.411410,-0.599899,-2.557106,4.152069,2.916012,-2.774803,-0.791748,-0.188721,0.377441
71,1007946379,9.296700,-0.768348,-2.600758,3.385135,1.824271,-2.522749,-0.789795,-0.189697,0.378906
72,1007963046,9.362369,-0.985415,-2.653310,3.886132,0.397925,-3.387638,-0.793457,-0.187988,0.375977
73,1007979713,9.485384,-1.082733,-2.682673,5.586777,-0.638345,-4.700763,-0.792725,-0.190674,0.378906
74,1007996380,9.517630,-1.060169,-2.701233,7.601692,-1.102179,-5.662060,-0.791260,-0.191650,0.378418
75,1008013047,9.526627,-0.927375,-2.696947,9.285081,-1.240567,-6.146708,-0.792236,-0.192627,0.379395
76,1008029714,9.522598,-0.738265,-2.682920,10.243107,-1.605520,-6.059481,-0.790771,-0.188232,0.381836
77,1008046381,9.575494,-0.542898,-2.699477,10.263929,-1.906764,-5.991249,-0.790771,-0.193115,0.385254
78,1008063048,9.676182,-0.373613,-2.654119,9.419580,-1.923284,-5.748478,-0.788330,-0.187744,0.387207
79,1008079715,9.688269,-0.304507,-2.650291,8.089279,-1.468415,-5.379602,-0.788330,-0.189209,0.388672
80,1008096382,9.697140,-0.267341,-2.631601,6.791866,-0.890528,-4.848817,-0.784424,-0.190674,0.390137
81,1008113049,9.649610,-0.255772,-2.634422,5.520966,-0.455765,-4.287619,-0.786865,-0.191162,0.389648
82,1008129716,9.661496,-0.268865,-2.613319,4.328118,0.056674,-3.790270,-0.783936,-0.189697,0.390625
83,1008146383,9.620687,-0.291043,-2.552929,3.322294,0.601802,-3.193853,-0.786865,-0.191162,0.394043
84,1008163050,9.517730,-0.298482,-2.505512,2.517402,0.820740,-2.588612,-0.781494,-0.193604,0.390625
85,1008179717,9.488172,-0.272002,-2.455475,1.494571,0.495126,-2.200720,-0.785889,-0.191650,0.392578
86,1008196384,9.584934,-0.290644,-2.374056,0.628145,0.199491,-2.036555,-0.784912,-0.193115,0.388672
87,1008213051,9.633224,-0.271517,-2.297558,-0.264131,0.162865,-1.615380,-0.783936,-0.193604,0.390625
88,1008229718,9.567847,-0.259216,-2.230257,-1.055858,0.195739,-1.083891,-0.781494,-0.194580,0.392090
89,1008246385,9.495356,-0.186473,-2.155184,-1.965838,0.064192,-0.495081,-0.783447,-0.195068,0.390625
90,1008263052,9.379152,-0.098523,-2.094376,-3.209732,-0.603563,-0.113989,-0.786377,-0.196045,0.390625
91,1008279719,9.250668,-0.049140,-2.036112,-4.440537,-1.898669,-0.446660,-0.784912,-0.196045,0.391602
92,1008296386,9.179853,0.042530,-2.036867,-5.272464,-4.124938,-0.661448,-0.784912,-0.196045,0.390625
93,1008313053,9.244183,0.156007,-2.055082,-6.147575,-6.657383,-0.346373,-0.783447,-0.199463,0.392090
94,1008329720,9.285387,0.269333,-2.148167,-7.215999,-8.857709,1.265467,-0.781982,-0.199463,0.393066
95,1008346387,9.445966,0.177773,-2.268654,-7.815258,-10.766509,3.234866,-0.781006,-0.198975,0.395508
96,1008363054,9.729565,-0.094577,-2.378191,-6.284681,-11.490029,5.405493,-0.779541,-0.198730,0.396484
97,1008379721,9.839876,-0.669870,-2.672868,-0.649141,-11.107135,9.428111,-0.780273,-0.198730,0.398926
98,1008396388,9.842132,-1.324020,-2.924055,10.438952,-10.905968,16.142782,-0.778564,-0.195312,0.397461
99,1008413055,9.886739,-1.644337,-3.117041,26.050230,-11.600827,23.683094,-0.782227,-0.187012,0.404785
100,1008429722,9.989275,-1.436327,-3.238440,41.503826,-12.714483,29.134207,-0.779297,-0.173828,0.416504
101,1008446389,10.117801,-1.160977,-3.355552,54.257851,-12.836224,32.817482,-0.786133,-0.158203,0.425293
102,1008463056,10.189036,-1.132714,-3.512876,66.134789,-11.643864,36.541821,-0.785156,-0.140381,0.433105
103,1008479723,10.185289,-1.074938,-3.697887,78.298203,-9.505634,39.732124,-0.791504,-0.120850,0.445312
104,1008496390,10.087638,-0.596561,-3.891142,87.645599,-7.991648,42.395763,-0.791504,-0.093506,0.456543
105,1008513057,9.981351,0.122900,-4.019512,90.585434,-7.524690,44.337242,-0.796875,-0.069824,0.463867
106,1008529724,9.906104,0.708740,-4.012334,86.907043,-6.806817,44.109554,-0.799805,-0.048340,0.475830
107,1008546391,9.915298,0.883447,-3.982714,79.318962,-5.082495,40.467766,-0.803223,-0.025879,0.483643
108,1008563058,9.914872,0.669427,-3.955332,70.594292,-1.894843,34.590183,-0.804199,-0.001953,0.489990
109,1008579725,9.806585,0.365828,-3.974909,62.525036,1.907505,28.215101,-0.807373,0.013916,0.491455
110,1008596392,9.583642,0.128149,-4.018313,54.869503,4.648077,21.951525,-0.808350,0.032959,0.496338
111,1008613059,9.429558,-0.004181,-4.029014,47.608089,6.128976,16.152777,-0.809814,0.046143,0.499756
112,1008629726,9.452584,-0.160382,-4.008386,41.006241,7.923999,10.110172,-0.811279,0.052490,0.496826
113,1008646393,9.568037,-0.296397,-3.876879,35.324123,11.112565,4.153625,-0.815186,0.064697,0.497803
114,1008663060,9.548068,-0.374434,-3.670524,30.317827,14.841165,-1.522002,-0.817383,0.068604,0.494629
115,1008679727,9.446956,-0.405319,-3.509338,25.619406,17.707550,-6.915672,-0.820801,0.072510,0.493652
116,1008696394,9.292357,-0.245745,-3.318399,20.528572,18.689730,-11.268650,-0.824219,0.074707,0.492920
117,1008713061,9.524349,-0.117743,-2.911560,14.380717,18.348223,-14.733758,-0.823730,0.074707,0.489258
118,1008729728,9.585211,0.102008,-2.610010,6.879669,16.529570,-18.479679,-0.827637,0.069336,0.483887
119,1008746395,9.653041,0.321261,-2.491910,-1.992814,14.400832,-22.307394,-0.827637,0.066406,0.484375
120,1008763062,9.754218,0.571792,-2.507727,-12.304562,13.010073,-25.525997,-0.831055,0.059814,0.478027
121,1008779729,10.001125,0.698166,-2.438891,-24.458212,13.622516,-28.108412,-0.828613,0.050049,0.474609
122,1008796396,10.309802,0.550097,-2.329047,-36.689362,16.868971,-29.165714,-0.832031,0.037842,0.468750
123,1008813063,10.270225,0.280611,-2.250646,-47.691628,23.007673,-28.097805,-0.831543,0.021240,0.461914
124,1008829730,10.235752,-0.247302,-2.040660,-56.385174,31.137691,-25.215450,-0.835449,0.009766,0.449219
125,1008846397,9.944172,-0.979969,-1.761807,-61.464653,39.175953,-21.610361,-0.841309,-0.007568,0.434570
126,1008863064,9.598856,-1.687936,-1.409076,-62.127510,44.552238,-17.980019,-0.846191,-0.021973,0.424805
127,1008879731,9.068067,-2.159579,-1.124629,-60.268963,44.533020,-14.762785,-0.851807,-0.033447,0.405762
128,1008896398,8.693300,-2.447488,-0.990003,-57.305199,38.834465,-12.493402,-0.856689,-0.043701,0.390625
129,1008913065,8.493505,-2.701349,-1.076324,-52.973812,29.762323,-11.358923,-0.860352,-0.055176,0.378418
130,1008929732,8.809290,-2.953029,-1.018730,-46.566914,21.404964,-10.591454,-0.859375,-0.064453,0.368164
131,1008946399,9.261851,-3.029449,-0.935594,-38.913742,15.817680,-9.343970,-0.858887,-0.070312,0.361328
132,1008963066,9.674013,-2.945356,-0.810653,-31.289675,12.698604,-6.865409,-0.863281,-0.078369,0.354004
133,1008979733,10.014024,-2.699292,-0.659418,-24.824034,11.206796,-3.657439,-0.863525,-0.081787,0.346191
134,1008996400,10.010444,-2.334596,-0.591621,-21.183754,9.450125,-0.894564,-0.864014,-0.084717,0.343018
135,1009013067,9.848276,-2.076001,-0.620808,-19.940344,6.633372,1.891330,-0.867432,-0.088867,0.339111
136,1009029734,9.675452,-1.996628,-0.719245,-19.624094,3.128282,4.513034,-0.868408,-0.086426,0.336670
137,1009046401,9.591845,-1.954116,-0.773678,-19.813526,-0.158389,6.684470,-0.868896,-0.088379,0.334229
138,1009063068,9.580045,-2.007919,-0.856896,-19.913765,-1.709779,8.106957,-0.868408,-0.092773,0.334229
139,1009079735,9.502280,-2.091438,-0.869598,-19.630516,-0.830173,8.925407,-0.867920,-0.091797,0.329346
140,1009096402,9.329571,-2.060487,-0.883616,-19.189335,1.322098,8.399512,-0.869873,-0.091797,0.328369
141,1009113069,9.113134,-1.906783,-0.916274,-19.859528,2.809545,7.081032,-0.870850,-0.088379,0.328369
142,1009129736,8.940817,-1.885224,-0.947395,-21.698874,3.351408,5.359653,-0.872314,-0.093262,0.321533
143,1009146403,8.881333,-2.006902,-1.033015,-23.405712,2.724281,3.268501,-0.870850,-0.095215,0.318604
144,1009163070,8.906922,-2.216500,-1.099104,-23.814245,0.877794,1.049143,-0.872803,-0.098633,0.318604
145,1009179737,9.033051,-2.351959,-1.208003,-22.540035,-1.161512,-1.373048,-0.875244,-0.098877,0.317139
146,1009196404,9.207605,-2.214146,-1.320250,-21.304100,-2.825085,-3.028527,-0.871826,-0.106689,0.310791
147,1009213071,9.401383,-2.078484,-1.464062,-21.310453,-3.533291,-3.719508,-0.871826,-0.109131,0.312744
148,1009229738,9.324082,-2.123928,-1.688059,-21.543196,-4.030459,-4.827195,-0.869385,-0.108643,0.310303
149,1009246405,9.213416,-2.181604,-1.958167,-20.137506,-4.984240,-7.106115,-0.869873,-0.114990,0.310303
150,1009263072,9.411277,-2.081373,-2.025750,-17.976624,-6.716519,-9.608556,-0.867432,-0.120850,0.306885
151,1009279739,9.511640,-1.966125,-2.108768,-15.323038,-8.289883,-11.605503,-0.865967,-0.126221,0.307861
152,1009296406,9.587738,-1.815091,-2.150374,-12.055582,-8.821705,-12.811158,-0.863037,-0.129395,0.312256
153,1009313073,9.634697,-1.640236,-2.200692,-9.148584,-7.951817,-12.658540,-0.860107,-0.136719,0.310303
154,1009329740,9.578606,-1.479690,-2.186236,-6.992568,-6.777139,-12.103177,-0.854736,-0.140137,0.312744
155,1009346407,9.567214,-1.438081,-2.119981,-5.083907,-6.138651,-11.866295,-0.855225,-0.141113,0.313721
156,1009363074,9.508471,-1.406396,-2.082989,-2.827849,-6.367923,-12.196366,-0.853760,-0.145020,0.313721
157,1009379741,9.546774,-1.366300,-2.051046,-0.573968,-6.687084,-12.600190,-0.855713,-0.146973,0.314697
158,1009396408,9.479690,-1.385918,-2.087570,2.244321,-6.793287,-13.473507,-0.849365,-0.149902,0.314697
159,1009413075,9.466168,-1.379538,-2.138473,5.705318,-7.342452,-15.284114,-0.848633,-0.154297,0.316650
160,1009429742,9.613232,-1.369687,-2.147171,9.653858,-8.684411,-17.427141,-0.843750,-0.157471,0.321533
161,1009446409,9.871932,-1.336208,-2.166846,14.432734,-9.643333,-20.369022,-0.838867,-0.162354,0.326904
162,1009463076,10.089153,-1.150143,-2.168582,19.548296,-8.498692,-22.354605,-0.836426,-0.163330,0.330811
163,1009479743,10.183187,-0.934115,-2.126536,24.184868,-5.722297,-22.698668,-0.833008,-0.164795,0.334229
164,1009496410,10.102957,-0.664931,-2.106617,27.962883,-2.486701,-21.395992,-0.831299,-0.165527,0.341553
165,1009513077,10.001176,-0.426659,-2.087124,30.500938,0.166310,-18.931559,-0.825439,-0.167969,0.343018
166,1009529744,9.831497,-0.236394,-2.015726,32.226177,1.734634,-16.155771,-0.823486,-0.167480,0.346924
167,1009546411,9.719909,-0.172400,-1.935052,33.513138,1.595864,-14.454941,-0.823975,-0.167480,0.352539
168,1009563078,9.764585,-0.200070,-1.866056,35.237877,0.580636,-13.598363,-0.823486,-0.166504,0.353516
169,1009579745,9.835046,-0.223543,-1.797737,37.454575,-0.728019,-13.095411,-0.825684,-0.162109,0.360840
170,1009596412,9.948359,-0.281751,-1.729736,40.204456,-2.273192,-12.043037,-0.819824,-0.160400,0.367676
171,1009613079,10.040177,-0.308090,-1.761356,43.889500,-3.652051,-10.849591,-0.816406,-0.154053,0.372070
172,1009629746,10.087942,-0.262984,-1.823584,47.905735,-4.313560,-9.395136,-0.816406,-0.152832,0.377441
173,1009646413,10.144665,-0.238763,-1.807651,52.020512,-3.875995,-6.547694,-0.814941,-0.144043,0.385742
174,1009663080,10.155872,-0.246185,-1.728637,55.701202,-2.355421,-2.609604,-0.812012,-0.140625,0.391602
175,1009679747,10.140990,-0.144608,-1.520203,58.724171,-1.312449,0.601336,-0.812988,-0.129883,0.396973
176,1009696414,9.987266,0.145389,-1.425025,59.139618,-0.679923,1.881449,-0.813965,-0.118408,0.406250
177,1009713081,9.721681,0.245688,-1.443132,57.189579,-0.536784,2.052914,-0.814209,-0.111084,0.413086
178,1009729748,9.334541,0.137313,-1.584439,54.142605,-1.313420,2.940451,-0.816650,-0.106201,0.418457
179,1009746415,9.194695,-0.356488,-1.705980,51.622169,-3.694923,5.329150,-0.814697,-0.093994,0.420898
180,1009763082,9.171567,-0.962642,-1.879553,51.154724,-7.536033,8.257607,-0.815186,-0.083984,0.429199
181,1009779749,9.188237,-1.563216,-2.206572,54.441891,-11.077450,8.597031,-0.814209,-0.074707,0.435547
182,1009796416,9.306997,-1.836002,-2.470057,60.894642,-12.212532,6.301650,-0.814209,-0.062988,0.447754
183,1009813083,9.417296,-1.489120,-2.634238,67.112267,-11.131063,4.293085,-0.814209,-0.049316,0.452637
184,1009829750,9.706444,-0.939415,-2.464164,67.117218,-8.691133,5.715650,-0.810791,-0.035400,0.461914
185,1009846417,9.805051,-0.831064,-2.290290,62.136990,-6.318165,8.530358,-0.808838,-0.022705,0.467285
186,1009863084,9.578472,-1.105483,-2.351066,56.188629,-5.886084,9.462946,-0.810791,-0.012695,0.475098
187,1009879751,9.615814,-1.379891,-2.248210,52.540798,-7.900431,6.165980,-0.807373,-0.000977,0.480957
188,1009896418,10.089670,-1.389067,-1.920163,50.111298,-8.456251,0.674472,-0.806885,0.006836,0.484863
189,1009913085,10.162596,-1.004274,-1.568971,46.347618,-4.234132,-3.467371,-0.805908,0.016846,0.488281
190,1009929752,9.783082,-0.690292,-1.295993,39.413471,2.680288,-3.885775,-0.802979,0.020752,0.495361
191,1009946419,8.750228,-0.880549,-1.270187,31.870674,5.894420,-3.811606,-0.807373,0.028564,0.493408
192,1009963086,7.921032,-1.362178,-1.504076,27.705116,1.421733,-7.119660,-0.808838,0.031494,0.494385
193,1009979753,7.789388,-1.652310,-1.724926,27.915707,-8.083551,-12.875216,-0.804443,0.034912,0.499756
194,1009996420,8.494884,-1.381184,-1.825136,29.290224,-16.175619,-18.908205,-0.802734,0.035400,0.507080
195,1010013087,9.624363,-0.950396,-1.858286,28.705690,-17.146645,-22.522434,-0.797852,0.034668,0.510498
196,1010029754,10.190493,-0.677081,-1.974774,27.343960,-11.272449,-23.571846,-0.793945,0.037598,0.514404
197,1010046421,10.119703,-0.394138,-2.102652,26.767067,-4.373389,-24.650263,-0.788574,0.032715,0.517334
198,1010063088,10.000863,0.030181,-2.120229,26.527304,-1.390706,-26.481094,-0.791016,0.033203,0.520752
199,1010079755,10.082159,0.662989,-2.043477,24.476423,-2.704022,-27.010473,-0.786621,0.028564,0.522217
200,1010096422,10.602798,1.139911,-1.913271,20.044477,-3.916632,-25.403259,-0.785645,0.030518,0.524658
201,1010113089,11.059727,1.352869,-1.707592,14.736425,-2.325959,-22.061914,-0.783447,0.027588,0.528564
202,1010129756,11.162724,1.472687,-1.542526,9.870464,1.316412,-18.298855,-0.780762,0.029053,0.525146
203,1010146423,11.023807,1.519609,-1.396060,5.253918,5.117351,-14.684579,-0.780518,0.021240,0.528076
204,1010163090,10.754417,1.363935,-1.337953,0.940928,8.493849,-11.045677,-0.782959,0.020264,0.528564
205,1010179757,10.545281,1.086254,-1.309470,-2.119696,11.853457,-8.545427,-0.784180,0.020264,0.522217
206,1010196424,10.183239,0.857351,-1.230147,-4.563240,14.778971,-6.478393,-0.785156,0.015869,0.519775
207,1010213091,9.589774,0.660888,-1.168457,-6.354339,16.499931,-5.075392,-0.789551,0.014648,0.517822
208,1010229758,8.843213,0.457522,-1.173128,-7.258943,15.106255,-4.554251,-0.791992,0.009766,0.511475
209,1010246425,8.336936,0.326578,-1.387191,-5.908148,8.458630,-5.517669,-0.792480,0.008301,0.508545
210,1010263092,8.638323,0.216397,-1.699189,-1.896697,-1.121670,-6.914136,-0.793945,0.006348,0.510498
211,1010279759,9.455030,0.076506,-1.848177,4.970844,-7.817499,-7.311340,-0.792480,0.003418,0.510986
212,1010296426,10.303008,0.010368,-1.943621,13.352880,-8.737885,-5.150553,-0.790527,0.003906,0.512939
213,1010313093,10.682940,0.045423,-1.984490,21.418943,-5.370941,0.400743,-0.787598,0.009277,0.513428
214,1010329760,10.681327,0.090473,-1.910927,28.144371,-1.316548,7.422345,-0.787598,0.014160,0.517822
215,1010346427,10.498631,-0.001102,-1.891072,34.207863,1.676314,13.735880,-0.790527,0.023438,0.517822
216,1010363094,10.427263,-0.092783,-1.801772,40.799194,4.996451,17.451736,-0.791504,0.037109,0.520264
217,1010379761,10.402187,0.183513,-1.614236,46.712101,9.355093,19.387655,-0.792480,0.048096,0.521240
218,1010396428,10.245822,0.573420,-1.384286,49.478848,13.095037,21.158115,-0.799072,0.063965,0.519287
219,1010413095,10.198239,0.705526,-1.137147,49.683094,15.622533,22.414227,-0.801514,0.075195,0.520752
220,1010429762,10.091417,0.750301,-0.911741,48.589401,17.455244,22.973484,-0.804932,0.090332,0.516357
221,1010446429,9.861749,0.810358,-0.732111,46.532097,18.045067,23.231630,-0.808594,0.108398,0.515381
222,1010463096,9.562231,0.894196,-0.604849,43.099903,17.559858,23.651423,-0.812012,0.121582,0.512695
223,1010479763,9.433463,0.661776,-0.490270,38.575691,15.758891,25.167959,-0.819336,0.129883,0.509277
224,1010496430,9.467095,0.286986,-0.442809,34.208466,13.447580,27.684669,-0.821045,0.145508,0.506836
225,1010513097,9.357969,-0.005493,-0.463368,29.411461,11.279211,30.395033,-0.823975,0.157227,0.504395
226,1010529764,9.217643,-0.236728,-0.452786,24.719587,9.014462,31.680416,-0.828857,0.170410,0.502930
227,1010546431,9.038949,-0.706296,-0.547970,21.486774,6.543777,30.426640,-0.829590,0.178223,0.499512
228,1010563098,9.074608,-1.406431,-0.613810,22.291000,4.436529,26.670803,-0.833984,0.189209,0.499023
229,1010579765,9.137948,-1.483244,-0.558484,24.865774,2.155759,22.786257,-0.833496,0.199219,0.500488
230,1010596432,8.951002,-1.129262,-0.646576,24.281347,0.118683,21.754068,-0.833008,0.210938,0.500000
231,1010613099,8.967730,-1.219159,-0.746731,21.177382,-1.432319,23.559025,-0.834961,0.220215,0.500488
232,1010629766,9.037550,-1.575292,-0.860978,18.948940,-2.285199,26.296089,-0.833740,0.227539,0.498047
233,1010646433,9.176303,-2.008814,-1.031663,17.481297,-2.296431,29.802759,-0.833740,0.237793,0.499512
234,1010663100,9.432833,-2.952272,-1.206244,19.120417,-1.819445,32.165863,-0.833252,0.251953,0.495605
235,1010679767,9.609712,-3.675204,-1.430623,25.728540,-1.554675,32.527294,-0.832764,0.260742,0.497559
236,1010696434,9.908087,-3.699321,-1.403854,33.146072,-0.976799,33.526409,-0.835449,0.271973,0.495605
237,1010713101,9.966890,-3.470182,-1.366065,38.676334,0.098578,35.384407,-0.831543,0.289307,0.496094
238,1010729768,10.066425,-3.562516,-1.377199,42.542484,0.951683,37.080566,-0.832520,0.303955,0.496094
239,1010746435,10.707094,-3.909751,-1.458826,47.879898,3.680613,38.533340,-0.832764,0.321533,0.492188
240,1010763102,11.418259,-4.207453,-1.489630,54.775387,9.249522,40.827766,-0.832275,0.339600,0.489014
241,1010779769,11.409822,-4.335725,-1.545374,62.207432,17.953209,44.680386,-0.835938,0.361572,0.483154
242,1010796436,11.019401,-4.641873,-1.425596,70.024979,27.016197,48.992466,-0.837158,0.387939,0.474365
243,1010813103,10.306968,-4.732131,-1.129079,78.324806,34.151337,52.590683,-0.837891,0.409912,0.463135
244,1010829770,9.775331,-4.422298,-0.826906,83.704002,38.480274,55.385948,-0.843506,0.439209,0.449951
245,1010846437,9.147472,-4.135614,-0.638934,84.725777,39.935524,56.358974,-0.845215,0.463623,0.435547
246,1010863104,8.793798,-4.123709,-0.528284,83.506691,38.253632,54.884228,-0.846191,0.493896,0.419434
247,1010879771,8.729228,-4.078697,-0.283313,81.299255,35.798298,50.861092,-0.847900,0.518799,0.407227
248,1010896438,8.434438,-3.870482,-0.114645,76.909767,34.313915,44.987671,-0.851074,0.539307,0.385498
249,1010913105,8.358307,-3.800440,0.083076,70.290161,32.763767,38.325035,-0.852783,0.560791,0.375732
250,1010929772,7.974099,-3.968691,0.249598,62.587990,28.840067,31.595448,-0.853516,0.576904,0.361084
251,1010946439,7.855954,-4.248073,0.319751,55.566364,23.219669,23.923891,-0.854248,0.592529,0.350830
252,1010963106,7.910162,-4.467039,0.303812,50.305054,18.077356,16.325441,-0.855225,0.603271,0.339355
253,1010979773,8.392056,-4.507159,0.516223,46.421188,15.177722,9.276320,-0.856934,0.612549,0.336426
254,1010996440,8.709695,-4.418163,0.760879,43.417797,14.722975,2.216200,-0.860840,0.618652,0.323730
255,1011013107,8.592034,-4.020743,1.010341,39.532455,15.596416,-3.232523,-0.860107,0.622559,0.315918
256,1011029774,8.304883,-3.772930,1.267288,33.932076,15.518774,-6.176789,-0.863037,0.626465,0.308594
257,1011046441,7.742437,-3.947272,1.330276,28.590179,12.524251,-7.262941,-0.866455,0.628418,0.303711
258,1011063108,7.502267,-4.253649,1.203735,25.607037,6.419603,-7.364695,-0.865234,0.630859,0.297852
259,1011079775,7.717655,-4.408687,1.163947,24.578804,-0.308070,-7.369226,-0.867188,0.631592,0.298340
260,1011096442,8.101357,-4.377111,1.234928,24.943020,-5.275076,-7.722043,-0.868652,0.632080,0.297852
261,1011113109,8.312296,-4.148278,1.231290,24.629124,-7.760564,-7.383263,-0.869141,0.635498,0.290527
262,1011129776,8.508387,-4.046096,1.252359,22.649931,-8.818074,-5.161879,-0.868652,0.633545,0.291504
263,1011146443,8.326650,-4.117054,1.170568,20.426836,-11.216462,-2.436195,-0.866699,0.634521,0.292480
264,1011163110,8.254469,-4.116794,0.999673,18.475777,-15.705688,-0.052045,-0.865234,0.638672,0.292969
265,1011179777,8.445437,-4.204612,0.771906,17.631100,-19.422451,1.085270,-0.865723,0.639160,0.298340
266,1011196444,8.860108,-4.273198,0.679807,16.657640,-20.773157,2.229662,-0.860352,0.641602,0.300293
267,1011213111,9.369715,-4.469653,0.750434,16.792578,-19.562447,1.994292,-0.858887,0.640625,0.302734
268,1011229778,9.428318,-4.542954,0.681839,17.812767,-16.631844,1.330013,-0.854980,0.645752,0.304199
269,1011246445,9.402660,-4.704841,0.690873,19.724728,-12.381342,0.105364,-0.852539,0.649658,0.306641
270,1011263112,8.973771,-4.429799,0.780437,21.307343,-8.535165,-1.183309,-0.854004,0.652100,0.308594
271,1011279779,8.768785,-4.098951,0.825405,19.391697,-7.713070,-0.889121,-0.854004,0.652100,0.307129
272,1011296446,9.023183,-4.161579,0.733342,16.057116,-7.431635,-1.602934,-0.850586,0.653564,0.308105
273,1011313113,9.642258,-4.510646,0.744653,14.493451,-4.370696,-4.136467,-0.851074,0.656006,0.308105
274,1011329780,9.694305,-4.476257,0.897081,15.710161,2.070616,-8.612022,-0.851074,0.656006,0.305176
275,1011346447,9.207315,-3.952930,1.095828,15.487170,7.968719,-11.402444,-0.854004,0.655518,0.306641
276,1011363114,8.486423,-3.711348,1.164194,11.391741,8.844119,-11.311208,-0.856445,0.653809,0.298340
277,1011379781,8.400765,-4.154469,1.033839,7.388468,5.512132,-10.080282,-0.858887,0.652832,0.295898
278,1011396448,8.870020,-4.761643,1.032729,7.244358,3.037982,-10.889221,-0.859375,0.652832,0.296387
279,1011413115,9.114344,-4.825830,1.163397,10.132580,2.981673,-13.619054,-0.863770,0.649902,0.295410
280,1011429782,9.035495,-4.504097,1.321557,11.919250,5.050889,-15.131824,-0.867676,0.649902,0.293945
281,1011446449,8.459651,-4.381624,1.250173,11.930275,4.111644,-15.197084,-0.869629,0.644287,0.291992
282,1011463116,7.983915,-4.635531,0.832090,13.138957,-2.928151,-14.776616,-0.867676,0.644775,0.290039
283,1011479783,8.578769,-4.709178,0.681490,17.706259,-9.338350,-16.221432,-0.873047,0.645264,0.293457
284,1011496450,8.980501,-4.139658,0.691575,21.465981,-11.583894,-18.006609,-0.873535,0.641357,0.292480
285,1011513117,9.086360,-3.523768,0.697962,21.173592,-11.015928,-18.934694,-0.874512,0.639404,0.294922
286,1011529784,9.071228,-3.386881,0.645454,18.659981,-8.995958,-18.752476,-0.874023,0.641357,0.293945
287,1011546451,9.149432,-3.793016,0.752704,19.154808,-6.884622,-18.472158,-0.874023,0.635010,0.296875
288,1011563118,9.068659,-3.781204,0.962860,23.310207,-4.774606,-17.463392,-0.878906,0.634521,0.294922
289,1011579785,8.847507,-3.450945,1.261420,26.839426,-4.240337,-14.529288,-0.878418,0.635498,0.292969
290,1011596452,8.959500,-3.123056,1.691746,28.985523,-4.972031,-10.139256,-0.879883,0.636475,0.291504
291,1011613119,8.989909,-2.824960,2.140301,28.539545,-7.236737,-4.674882,-0.880859,0.637939,0.290527
292,1011629786,9.334252,-3.018313,2.614846,25.761402,-9.702718,0.230726,-0.877930,0.642822,0.291992
293,1011646453,9.095302,-3.784844,2.445714,25.447617,-13.287931,2.323571,-0.877441,0.643799,0.291992
294,1011663120,8.277180,-4.291982,1.684387,30.060530,-19.919548,1.292788,-0.873047,0.653076,0.292480
295,1011679787,8.031845,-4.109984,1.066528,37.095890,-26.264732,-1.404034,-0.869141,0.654785,0.297852
296,1011696454,8.281065,-3.565688,0.911245,44.166882,-29.295610,-5.334474,-0.868164,0.660645,0.298828
297,1011713121,8.878188,-2.731161,0.943399,48.209408,-28.541100,-7.367755,-0.865234,0.664551,0.300293
298,1011729788,9.103640,-2.031682,0.926454,48.109123,-26.219814,-6.531591,-0.862793,0.671387,0.305176
299,1011746455,9.201159,-1.632858,0.906885,45.745888,-24.629276,-4.266194,-0.862793,0.678223,0.304688
300,1011763122,9.295623,-1.305492,0.896264,42.134644,-21.592369,-2.464282,-0.856934,0.678955,0.307129
301,1011779789,9.268071,-1.080355,1.056578,38.045452,-16.856623,-2.404355,-0.855713,0.688232,0.304932
302,1011796456,8.992481,-0.809619,1.280988,33.449524,-12.492818,-4.446718,-0.853760,0.695557,0.304932
303,1011813123,8.692085,-0.507131,1.509953,27.188789,-11.342914,-5.889351,-0.850830,0.695068,0.304443
304,1011829790,8.802833,-0.791227,1.740224,20.628300,-13.217680,-6.396619,-0.852295,0.696533,0.305420
305,1011846457,9.158795,-1.350137,1.962525,17.769917,-14.985702,-7.346212,-0.849854,0.697266,0.306885
306,1011863124,9.396187,-1.615663,2.219369,18.965975,-15.783901,-8.619297,-0.850342,0.700684,0.307861
307,1011879791,8.985884,-1.395038,2.132186,20.445494,-18.856932,-8.502929,-0.849365,0.701660,0.310303
308,1011896458,8.810897,-1.162350,1.905511,19.966116,-24.975704,-6.464683,-0.846924,0.704102,0.315186
309,1011913125,8.893096,-1.126634,1.672525,18.400959,-31.233366,-3.385015,-0.845215,0.703613,0.324219
310,1011929792,9.054824,-1.276415,1.523570,17.118589,-34.575676,-0.682044,-0.840332,0.701904,0.330566
311,1011946459,8.977596,-1.448404,1.322977,16.742828,-35.890865,1.473385,-0.834473,0.709717,0.335938
312,1011963126,8.728205,-1.617120,1.057072,16.458750,-38.213078,3.362542,-0.830078,0.713867,0.343750
313,1011979793,8.600183,-1.776238,0.706098,15.727945,-42.433205,5.829410,-0.823486,0.716309,0.353027
314,1011996460,8.777205,-2.021271,0.264104,14.322485,-47.250069,9.489760,-0.816162,0.721924,0.361328
315,1012013127,9.386353,-2.742508,-0.043413,13.818990,-48.523426,13.477097,-0.805908,0.728027,0.371582
316,1012029794,9.817955,-3.531516,-0.220052,17.868690,-45.370914,15.066867,-0.796143,0.733154,0.384766
317,1012046461,9.803466,-3.762996,-0.432838,24.557644,-42.511395,15.316813,-0.787842,0.740723,0.389160
318,1012063128,10.078946,-3.564151,-0.567032,30.323837,-40.474857,14.947556,-0.781982,0.748535,0.393066
319,1012079795,10.473572,-3.253901,-0.599852,35.045105,-37.194191,13.329958,-0.773682,0.758545,0.399902
320,1012096462,10.691253,-2.859652,-0.530636,37.806499,-31.515764,11.662650,-0.768799,0.767578,0.399658
321,1012113129,10.372880,-2.417174,-0.421490,38.415001,-25.573008,9.731922,-0.759033,0.776367,0.402100
322,1012129796,9.880795,-2.151510,-0.446523,37.082649,-22.316435,8.442906,-0.756104,0.784912,0.400146
323,1012146463,9.476969,-2.072567,-0.536732,34.903839,-22.335539,7.450109,-0.753174,0.793213,0.402100
324,1012163130,9.636184,-2.040181,-0.482349,32.107849,-23.374615,7.653522,-0.747070,0.799561,0.403076
325,1012179797,9.724521,-2.155555,-0.477448,28.127964,-23.728495,9.029169,-0.738281,0.807617,0.404053
326,1012196464,9.501468,-2.463858,-0.649682,24.076887,-25.328043,10.736170,-0.737305,0.816406,0.403564
327,1012213131,9.343145,-2.988606,-1.078389,21.517815,-28.469538,12.303050,-0.730957,0.818115,0.408447
328,1012229798,9.647963,-3.594477,-1.298519,22.331633,-32.107216,12.316164,-0.724121,0.827881,0.407959
329,1012246465,10.174784,-3.728113,-1.302557,25.371105,-33.105637,11.874225,-0.715332,0.832031,0.413330
330,1012263132,10.265714,-3.441513,-1.317782,26.659470,-32.321972,12.333463,-0.708008,0.841064,0.417725
331,1012279799,9.986953,-3.134667,-1.455962,25.269497,-31.161833,13.494576,-0.698730,0.850586,0.421631
332,1012296466,10.224237,-3.254764,-1.257300,23.020699,-31.230164,13.753557,-0.691895,0.858398,0.420410
333,1012313133,10.411308,-3.757405,-1.336855,25.208057,-27.768974,10.566722,-0.685303,0.864502,0.421875
334,1012329800,10.819538,-3.633193,-0.985052,28.141882,-20.939781,7.190446,-0.679932,0.868408,0.423828
335,1012346467,10.689584,-3.422773,-0.519382,31.050652,-9.704406,2.789214,-0.678467,0.876221,0.421387
336,1012363134,9.994704,-3.032338,-0.347529,31.830662,-3.497030,0.894866,-0.674072,0.881592,0.414062
337,1012379801,9.173810,-2.579858,-0.390601,30.174553,-3.758010,0.433861,-0.674316,0.888672,0.413086
338,1012396468,9.013171,-2.047782,-0.321349,23.916477,-7.079481,1.026028,-0.674805,0.894775,0.407715
339,1012413135,9.195548,-2.034907,-0.118998,13.395473,-8.670752,3.181798,-0.672363,0.896484,0.410645
340,1012429802,9.008611,-2.583983,-0.088724,3.390271,-9.074942,3.635270,-0.669922,0.898438,0.409668
341,1012446469,8.743682,-3.183061,-0.172920,-4.467331,-11.365155,1.369825,-0.666504,0.899902,0.414551
342,1012463136,8.563586,-3.763556,-0.363118,-8.539590,-15.756645,-4.702368,-0.664551,0.897949,0.418945
343,1012479803,8.629390,-3.933109,-0.516397,-9.175131,-20.470589,-13.399712,-0.662842,0.894775,0.424316
344,1012496470,8.928858,-3.711198,-0.576521,-8.594144,-23.628130,-21.851648,-0.666260,0.890625,0.430664
345,1012513137,8.833348,-3.202499,-0.774483,-9.938189,-25.573551,-26.476086,-0.665039,0.885010,0.439453
346,1012529804,8.488170,-2.603791,-1.104655,-15.576460,-28.453684,-27.122648,-0.662109,0.878662,0.444824
347,1012546471,8.465884,-2.454620,-1.452203,-23.850981,-32.305828,-26.423302,-0.663330,0.870361,0.455811
348,1012563138,8.809454,-2.839285,-1.728388,-29.576574,-34.075233,-28.206833,-0.660400,0.861084,0.466553
349,1012579805,8.955090,-2.894675,-2.068516,-32.150879,-34.679058,-31.391571,-0.659668,0.851807,0.481689
350,1012596472,9.079726,-2.816413,-2.404341,-34.325729,-35.218021,-32.805176,-0.662842,0.838135,0.493896
351,1012613139,9.322515,-3.265578,-2.729566,-35.368896,-35.257961,-32.262306,-0.657715,0.825439,0.505127
352,1012629806,9.707926,-4.060394,-2.968284,-31.834867,-33.425011,-30.855606,-0.660645,0.815186,0.517090
353,1012646473,9.953505,-4.378033,-3.040924,-24.744841,-27.747440,-28.780598,-0.656982,0.808105,0.528809
354,1012663140,9.868729,-4.193244,-2.954206,-17.978840,-19.688238,-27.558805,-0.656006,0.799316,0.533691
355,1012679807,9.596616,-4.197356,-2.804081,-10.936919,-12.633087,-27.731560,-0.660156,0.792480,0.538086
356,1012696474,9.504683,-4.261695,-2.524332,-2.197038,-6.953997,-28.472366,-0.662598,0.787354,0.538086
357,1012713141,9.260391,-3.971345,-2.199985,6.791299,-1.557923,-28.477364,-0.664062,0.780518,0.537109
358,1012729808,8.575850,-3.569811,-2.026071,11.692479,1.306194,-24.990866,-0.668945,0.781006,0.536133
359,1012746475,7.653347,-3.650879,-2.270269,14.156955,-1.885099,-21.365154,-0.671875,0.780273,0.532227
360,1012763142,7.679135,-3.929228,-2.651882,16.854364,-10.022701,-20.644472,-0.673340,0.779785,0.531738
361,1012779809,8.605924,-4.210041,-2.989121,20.148664,-16.315868,-21.776516,-0.671875,0.781250,0.527832
362,1012796476,9.429445,-4.234947,-3.253907,24.152689,-16.588717,-24.178040,-0.672852,0.782227,0.529297
363,1012813143,9.473205,-3.995732,-3.479348,29.336596,-12.630240,-27.973560,-0.678711,0.783203,0.527344
364,1012829810,9.145987,-3.626103,-3.641961,34.395687,-9.908772,-30.643221,-0.678955,0.782715,0.521484
365,1012846477,8.661036,-3.344502,-3.895360,39.155216,-10.860439,-32.854671,-0.681396,0.787109,0.517578
366,1012863144,8.849451,-3.122404,-4.021020,43.375111,-13.703449,-33.599663,-0.681885,0.788086,0.511230
367,1012879811,9.402960,-2.626795,-4.106407,44.248394,-14.630965,-29.943110,-0.685791,0.788818,0.504395
368,1012896478,9.592979,-2.285143,-4.243272,41.564808,-13.051405,-27.573965,-0.685547,0.793701,0.498047
369,1012913145,9.848917,-2.158857,-4.078791,38.919052,-9.309860,-28.453518,-0.685547,0.796631,0.492676
370,1012929812,10.184384,-1.893095,-3.556262,37.437958,-2.924585,-31.908110,-0.693848,0.790039,0.486816
371,1012946479,9.814076,-1.422155,-2.976848,35.212006,4.198399,-34.202644,-0.699219,0.792480,0.478516
372,1012963146,9.082887,-1.140865,-2.432863,30.769056,7.368058,-32.527615,-0.706299,0.795166,0.469727
373,1012979813,8.411240,-1.113702,-2.251056,25.027216,5.630079,-29.245552,-0.710205,0.790283,0.465820
374,1012996480,8.352184,-1.812062,-2.515487,20.915325,0.803045,-28.466373,-0.716553,0.791504,0.459473
375,1013013147,8.936270,-2.487221,-2.902027,22.158760,-4.019267,-29.774370,-0.721436,0.789062,0.457031
376,1013029814,9.303141,-2.629447,-3.387438,26.428984,-6.753057,-30.106791,-0.727783,0.785400,0.452637
377,1013046481,9.580039,-2.327082,-3.838609,30.734413,-8.043925,-28.452242,-0.727783,0.783447,0.446777
378,1013063148,10.098272,-1.872916,-3.999819,33.559631,-6.389590,-26.511721,-0.734619,0.780029,0.442383
379,1013079815,10.483697,-1.398834,-3.842349,34.804459,-2.022571,-24.710653,-0.735840,0.784424,0.436523
380,1013096482,10.259431,-0.988457,-3.622892,33.550636,2.471979,-22.164396,-0.740723,0.781738,0.432129
381,1013113149,9.686251,-0.801764,-3.585492,31.188271,3.997617,-19.872158,-0.741211,0.782227,0.423584
382,1013129816,9.293160,-0.544756,-3.763400,26.755537,2.497932,-17.526768,-0.747070,0.781250,0.418701
383,1013146483,9.286189,-0.453036,-3.815561,20.643263,-1.297530,-15.399441,-0.747803,0.783936,0.410889
384,1013163150,9.986854,-0.457853,-3.499798,13.680991,-6.355518,-13.299079,-0.746826,0.781006,0.411865
385,1013179817,10.442602,-0.851401,-3.192679,8.034270,-9.801607,-12.902988,-0.754150,0.780029,0.407959
386,1013196484,10.946366,-1.534347,-3.205767,8.446120,-7.637053,-16.377384,-0.753662,0.777588,0.409424
387,1013213151,10.540960,-1.418507,-3.258833,13.630693,-2.019771,-22.252419,-0.753174,0.774170,0.406982
388,1013229818,9.960395,-0.912096,-3.227544,18.929573,-1.914479,-25.602516,-0.758057,0.770508,0.407471
389,1013246485,10.418504,-0.546386,-2.891378,23.855183,-6.026836,-26.380573,-0.764893,0.766113,0.401611
390,1013263152,10.849010,0.092207,-2.568532,27.327219,-8.510017,-24.973291,-0.768311,0.763184,0.402832
391,1013279819,10.963857,0.856238,-2.432672,26.121614,-8.335626,-22.268915,-0.768799,0.761475,0.395264
392,1013296486,10.991894,1.020297,-2.359444,21.630508,-4.269791,-20.549515,-0.770264,0.759521,0.394775
393,1013313153,10.919337,0.622482,-2.150238,18.883801,1.651915,-20.095585,-0.772705,0.762451,0.387939
394,1013329820,9.752552,0.599904,-2.215772,18.306595,5.099424,-19.561415,-0.778076,0.754883,0.383545
395,1013346487,8.965384,0.434627,-2.275544,18.228262,4.027639,-18.349957,-0.780518,0.753418,0.380615
396,1013363154,8.284165,0.235763,-2.381326,20.365370,2.307704,-17.820749,-0.781982,0.750488,0.374268
397,1013379821,7.870103,0.141034,-2.413234,23.988037,1.724809,-16.722851,-0.786621,0.749512,0.370361
398,1013396488,7.575636,0.236077,-2.377230,27.991211,0.530178,-15.281563,-0.785645,0.749512,0.366943
399,1013413155,7.595532,0.301280,-2.481031,30.518433,-2.147249,-14.465050,-0.792969,0.752197,0.364014
400,1013429822,7.670804,0.094464,-2.824038,32.611015,-5.585016,-14.663837,-0.791992,0.751709,0.357666
401,1013446489,7.986214,-0.058340,-3.092118,34.257366,-8.124875,-14.258257,-0.791504,0.751709,0.353760
402,1013463156,8.524783,-0.165520,-3.228248,35.176327,-11.113012,-13.480254,-0.796387,0.755127,0.352295
403,1013479823,9.278743,-0.222644,-3.384181,36.535511,-13.023701,-13.607749,-0.794189,0.753662,0.346924
404,1013496490,9.594517,0.112415,-3.594726,36.793373,-11.283098,-12.862247,-0.796143,0.756104,0.344482
405,1013513157,9.795714,0.266054,-3.543316,34.199303,-5.679988,-11.986184,-0.798584,0.756836,0.338623
406,1013529824,9.385860,0.120156,-3.525279,32.060955,-1.134366,-14.273274,-0.797119,0.757812,0.334229
407,1013546491,9.046954,-0.088535,-3.667902,32.766766,-1.308726,-18.730520,-0.803223,0.758301,0.326904
408,1013563158,9.181224,-0.155002,-3.786753,36.023365,-3.301114,-23.512627,-0.804688,0.754395,0.322021
409,1013579825,9.220931,0.332697,-3.901120,37.454861,-5.096669,-23.361994,-0.810547,0.755615,0.319580
410,1013596492,9.393608,0.610686,-3.884723,34.184830,-4.865544,-19.287981,-0.813477,0.753662,0.316650
411,1013613159,9.434428,0.309208,-3.904382,30.287655,-4.019853,-16.297224,-0.812500,0.752686,0.308838
412,1013629826,9.678270,-0.191951,-3.806019,30.148483,-1.739430,-17.333302,-0.813965,0.751709,0.304932
413,1013646493,9.773223,-0.162328,-3.547391,33.195782,1.962039,-21.407173,-0.817383,0.750977,0.300537
414,1013663160,9.503779,0.401745,-3.361895,36.109528,5.459889,-23.796057,-0.825439,0.750488,0.294189
415,1013679827,9.400343,0.978703,-3.006123,35.032375,8.302913,-21.040140,-0.827393,0.747314,0.285889
416,1013696494,9.148603,1.051632,-2.629606,30.909595,9.831078,-16.670536,-0.830811,0.745361,0.281006
417,1013713161,9.102664,0.475911,-2.274194,28.682262,10.418668,-15.232307,-0.834229,0.746338,0.273926
418,1013729828,8.646788,0.069107,-2.204824,30.157171,11.114093,-16.400137,-0.835449,0.746094,0.265137
419,1013746495,7.825600,0.012940,-2.419944,33.084446,7.894726,-17.717869,-0.839844,0.742676,0.257324
420,1013763162,7.711131,0.216240,-2.690184,35.503254,0.384429,-17.651833,-0.842773,0.743164,0.253418
421,1013779829,8.167049,0.553319,-3.070293,35.629711,-8.394647,-15.923029,-0.842773,0.741211,0.250488
422,1013796496,9.176504,0.589821,-3.308784,34.778656,-13.796823,-14.940728,-0.846680,0.742432,0.249023
423,1013813163,10.313020,0.596064,-3.264660,35.710648,-12.168921,-15.636390,-0.849121,0.739014,0.249023
424,1013829830,10.469072,0.985030,-3.267489,36.733414,-6.087162,-16.557693,-0.852051,0.741455,0.242188
425,1013846497,10.060290,1.547336,-3.429507,34.930733,-1.439966,-15.686884,-0.850830,0.738037,0.235840
426,1013863164,9.810448,1.736411,-3.594822,30.286207,-0.263210,-12.933772,-0.852783,0.736572,0.234375
427,1013879831,9.791081,1.606880,-3.668163,25.038239,-0.045219,-9.617683,-0.856201,0.736328,0.228027
428,1013896498,9.849300,1.245002,-3.607190,21.520142,0.849389,-7.669340,-0.853760,0.739746,0.224121
429,1013913165,9.914806,0.931789,-3.454107,21.176611,1.820906,-8.385933,-0.857666,0.735840,0.221680
430,1013929832,10.582108,0.858175,-3.040626,23.377571,4.107876,-10.255873,-0.859131,0.738281,0.219727
431,1013946499,10.951784,1.211380,-2.564453,25.390717,9.733402,-9.448496,-0.860352,0.736328,0.211426
432,1013963166,10.768616,1.745150,-2.090637,23.562084,16.902096,-4.168966,-0.863770,0.736084,0.208984
433,1013979833,10.127648,1.753461,-1.848575,18.405924,22.113192,3.429941,-0.864258,0.737549,0.200195
434,1013996500,10.299206,1.061418,-1.565411,14.206153,22.329668,9.068489,-0.867432,0.740967,0.189453
435,1014013167,10.931704,0.179121,-1.349116,14.147270,20.864077,10.726403,-0.865967,0.743408,0.184570
436,1014029834,10.522657,-0.357981,-1.579257,18.709188,18.965918,8.210424,-0.869385,0.744385,0.175537
437,1014046501,10.204203,-0.419148,-1.672531,25.181738,16.385399,5.191320,-0.867188,0.749268,0.170166
438,1014063168,9.232205,-0.075614,-2.129333,29.854702,11.115561,4.622169,-0.868164,0.752930,0.157959
439,1014079835,8.534833,0.113202,-3.015273,31.573845,1.555830,5.773220,-0.869629,0.756348,0.155518
440,1014096502,9.077084,-0.100630,-3.968255,31.877726,-8.228189,7.543335,-0.866943,0.758789,0.150635
441,1014113169,10.367371,-0.439909,-4.675807,32.558445,-14.396927,7.393633,-0.867432,0.761719,0.151123
442,1014129836,11.903255,-0.584133,-4.809285,33.411575,-12.557746,3.766525,-0.863037,0.764893,0.148682
443,1014146503,12.683623,-0.686865,-4.465561,34.277477,-0.409600,-2.788850,-0.862061,0.767334,0.145264
444,1014163170,11.941991,-0.683033,-3.824703,36.390118,16.453295,-10.755195,-0.866211,0.769043,0.133057
445,1014179837,10.034163,-0.585658,-3.134301,39.330635,27.635681,-17.112934,-0.872070,0.765625,0.119873
446,1014196504,8.052338,-0.631488,-2.725722,43.687057,26.456455,-20.699369,-0.876221,0.762939,0.108398
447,1014213171,7.041481,-0.424217,-2.725030,49.001083,14.793204,-21.744457,-0.882568,0.758789,0.096191
448,1014229838,7.482777,0.104145,-2.673602,51.911407,1.750845,-19.193607,-0.885498,0.758301,0.086914
449,1014246505,7.977380,0.355806,-2.765885,50.856388,-7.880210,-13.638016,-0.885742,0.754883,0.081543
450,1014263172,8.744219,0.130261,-2.785764,49.940937,-12.363844,-10.708593,-0.886230,0.755371,0.077148
451,1014279839,9.288628,0.063935,-2.645085,51.100155,-10.240753,-12.221288,-0.888184,0.753662,0.071289
452,1014296506,9.280454,0.430276,-2.427637,52.024475,-4.108308,-16.633165,-0.889160,0.755127,0.060547
453,1014313173,8.872205,0.828528,-2.208829,50.931934,2.496528,-20.269285,-0.890869,0.754639,0.055176
454,1014329840,7.886645,0.918920,-2.264922,48.678577,4.630470,-21.285429,-0.896729,0.745605,0.046387
455,1014346507,7.264698,0.873748,-2.435924,46.218273,0.317030,-18.930578,-0.899658,0.742676,0.040527
456,1014363174,7.368709,0.657688,-2.619106,42.701797,-6.964771,-14.002002,-0.903076,0.741211,0.037109
457,1014379841,8.123977,-0.020462,-2.915619,41.049942,-12.444398,-9.974908,-0.904053,0.741211,0.032227
458,1014396508,8.860225,-0.515110,-3.078104,43.620117,-13.026935,-7.834726,-0.905029,0.737549,0.027832
459,1014413175,8.919097,-0.466757,-3.314563,47.401501,-11.786078,-7.220653,-0.903320,0.738037,0.024902
460,1014429842,8.470489,-0.084571,-3.687407,49.239670,-12.891578,-8.219967,-0.904785,0.737061,0.022949
461,1014446509,8.175066,0.301770,-4.114707,48.565491,-17.079542,-9.148098,-0.906250,0.737549,0.021484
462,1014463176,8.515235,0.398235,-4.475314,46.597359,-21.651661,-10.316575,-0.907227,0.734619,0.019531
463,1014479843,9.201731,0.453956,-4.741091,46.194881,-22.992617,-11.188812,-0.908203,0.732666,0.020508
464,1014496510,10.031147,0.654860,-4.902076,46.205822,-20.409338,-10.404577,-0.910156,0.730713,0.016602
465,1014513177,10.405559,0.852464,-5.023162,45.515167,-14.137827,-8.522311,-0.910156,0.730713,0.015137
466,1014529844,10.125137,1.141541,-5.087652,42.848560,-6.446888,-5.200796,-0.907227,0.733154,0.011230
467,1014546511,9.931523,1.248023,-4.863539,38.182354,0.184118,-1.844726,-0.909180,0.730225,0.006836
468,1014563178,9.677793,1.122814,-4.633575,31.886093,5.603497,1.749219,-0.910400,0.732422,-0.002686
469,1014579845,9.585415,0.498215,-4.378103,25.573627,9.971173,5.468090,-0.909424,0.732422,-0.006592
470,1014596512,9.493145,-0.424188,-4.057790,21.982275,13.912413,8.261660,-0.909424,0.733887,-0.012939
471,1014613179,9.895981,-1.293970,-3.588034,21.915344,15.306787,8.783944,-0.908936,0.737305,-0.019775
472,1014629846,9.677364,-1.826101,-3.599002,25.734594,15.570480,6.745966,-0.906738,0.739258,-0.025635
473,1014646513,10.192312,-1.925340,-3.392657,31.343311,15.617904,5.301999,-0.904297,0.740234,-0.036377
474,1014663180,10.175893,-1.836267,-3.201025,36.164085,16.337503,6.149355,-0.905518,0.741699,-0.047119
475,1014679847,9.317005,-1.695589,-3.716529,40.497463,15.030728,4.996732,-0.905029,0.744629,-0.053955
476,1014696514,9.570907,-1.513580,-3.736919,45.056065,15.199061,2.551256,-0.907227,0.746582,-0.063965
477,1014713181,9.897809,-1.226503,-3.517364,49.428753,15.820359,-1.211351,-0.907715,0.744385,-0.073242
478,1014729848,9.319096,-0.767068,-3.848826,54.694935,12.824008,-6.474286,-0.906250,0.745361,-0.084473
479,1014746515,10.820797,0.064055,-3.503695,58.744293,11.852302,-8.611543,-0.907959,0.742432,-0.097656
480,1014763182,10.486959,1.225017,-3.661466,57.035343,10.222004,-7.029695,-0.909424,0.739502,-0.106445
481,1014779849,11.690884,1.705297,-2.907987,49.556141,14.679511,-1.632645,-0.912598,0.740723,-0.119141
482,1014796516,10.853745,1.406649,-2.702280,41.244217,18.967667,2.615005,-0.913086,0.736328,-0.125977
483,1014813183,10.597573,0.698326,-2.306684,37.351093,22.306616,3.268759,-0.911377,0.736328,-0.139893
484,1014829850,9.612195,0.109423,-2.077854,38.485943,25.358603,1.628077,-0.911865,0.737549,-0.150146
485,1014846517,8.395864,-0.134535,-2.200187,42.767113,23.139250,-1.524186,-0.909180,0.739502,-0.160400
486,1014863184,7.613872,0.048259,-2.428640,46.805172,15.386662,-3.317386,-0.910645,0.737061,-0.176025
487,1014879851,7.916542,-0.052840,-2.558031,48.544353,5.855298,-1.956763,-0.910889,0.734619,-0.183838
488,1014896518,8.872797,-0.609667,-2.620820,51.599804,-0.558529,-0.817014,-0.909912,0.734131,-0.188721
489,1014913185,9.997412,-1.155377,-2.562041,59.212189,-0.643130,-1.629180,-0.912354,0.731445,-0.197998
490,1014929852,10.403404,-0.946446,-2.483904,68.832909,4.415139,-2.654604,-0.909668,0.729492,-0.209473
491,1014946519,9.840252,-0.155391,-2.467929,74.195534,8.350422,-1.499000,-0.909668,0.727051,-0.217773
492,1014963186,9.096343,0.094820,-2.839114,75.099213,6.423332,-0.104656,-0.911133,0.723633,-0.230957
493,1014979853,9.583142,-0.389059,-3.098861,76.546112,5.944747,1.004263,-0.910889,0.721191,-0.242188
494,1014996520,9.687196,-1.100162,-3.225878,81.662354,11.132373,3.327176,-0.908447,0.718506,-0.255371
495,1015013187,9.321719,-1.810373,-3.344392,90.531143,16.934628,7.790734,-0.907227,0.717041,-0.275635
496,1015029854,8.523829,-2.309696,-3.603397,102.285591,16.731977,12.207589,-0.908936,0.715576,-0.289795
497,1015046521,8.617669,-3.063072,-4.156584,118.465591,9.498661,15.382401,-0.902344,0.714600,-0.310791
498,1015063188,9.833209,-3.366010,-4.585329,137.512299,3.635991,21.835136,-0.897705,0.712646,-0.328857
499,1015079855,10.659996,-2.992080,-4.829755,152.884628,4.126593,31.814573,-0.897705,0.707520,-0.349609
500,1015096522,11.401330,-2.233554,-4.566914,159.619827,9.879350,40.813637,-0.891113,0.708008,-0.369629
501,1015113189,11.309851,-2.250322,-4.054716,160.806793,20.407818,42.419338,-0.881348,0.706543,-0.399170
502,1015129856,10.796272,-2.609037,-3.557986,164.106323,30.158165,38.027081,-0.871338,0.707031,-0.426514
503,1015146523,9.958385,-2.577739,-3.216525,169.165558,37.363308,32.472248,-0.866211,0.698730,-0.457031
504,1015163190,9.158535,-1.880118,-2.762811,172.294830,38.949593,28.751553,-0.856934,0.689941,-0.492676
505,1015179857,8.511459,-0.858478,-2.357405,168.482010,34.284340,26.288740,-0.852539,0.676025,-0.520264
506,1015196524,8.236395,-0.195889,-2.054587,157.797577,24.998896,24.931452,-0.840820,0.668945,-0.547607
507,1015213191,8.655332,-0.170665,-1.713004,143.293915,16.140863,24.598022,-0.837402,0.653564,-0.566162
508,1015229858,9.291739,-0.463748,-1.560673,128.916306,12.637239,23.265902,-0.833252,0.644287,-0.582520
509,1015246525,9.740051,-0.936001,-1.391278,116.602531,13.444963,20.532801,-0.828857,0.631592,-0.597168
510,1015263192,10.037193,-1.299056,-0.951036,107.813934,18.378307,16.525600,-0.824219,0.620361,-0.614258
511,1015279859,9.294065,-1.228163,-0.505157,101.254120,22.106894,11.843774,-0.821289,0.610352,-0.629395
512,1015296526,8.524745,-1.314811,-0.308598,95.542252,19.763554,7.064670,-0.816650,0.596680,-0.645264
513,1015313193,8.752871,-1.516019,-0.236527,92.220657,13.687852,3.240330,-0.813232,0.583984,-0.659912
514,1015329860,9.078561,-1.492144,-0.144313,87.802368,8.341394,3.025666,-0.810791,0.571777,-0.666260
515,1015346527,9.439294,-1.636632,-0.134519,81.425110,4.867596,5.304290,-0.810303,0.559570,-0.674072
516,1015363194,9.458249,-2.082197,-0.145980,76.839165,4.819048,8.175843,-0.808350,0.549072,-0.682373
517,1015379861,9.291410,-2.594188,-0.165716,76.159676,5.319145,11.132427,-0.808350,0.541260,-0.690186
518,1015396528,9.275482,-2.672259,-0.080089,77.512550,5.511826,14.110263,-0.801758,0.527588,-0.697510
519,1015413195,9.258207,-2.607981,-0.004537,78.483521,6.104931,16.245947,-0.800781,0.523682,-0.704834
520,1015429862,9.074939,-2.561908,0.014268,80.002693,6.166821,15.780145,-0.798340,0.510986,-0.709717
521,1015446529,8.752813,-2.538293,-0.079625,82.429443,3.072696,12.553342,-0.797852,0.499268,-0.718018
522,1015463196,9.201319,-2.477766,-0.194202,85.831108,-1.958322,9.017437,-0.798828,0.486816,-0.724365
523,1015479863,10.641132,-2.358191,0.262330,87.308998,-3.851857,8.510184,-0.797852,0.476562,-0.729004
524,1015496530,12.306122,-2.487463,1.205478,87.804863,-0.502932,10.503911,-0.797852,0.461914,-0.733887
525,1015513197,11.729272,-2.447351,1.250184,86.877190,3.733466,13.787496,-0.794922,0.450195,-0.738281
526,1015529864,10.218478,-2.630711,0.643171,85.456696,4.524431,15.864079,-0.796387,0.439453,-0.742188
527,1015546531,10.379589,-2.683329,0.732036,83.052315,4.947942,16.465370,-0.796387,0.428467,-0.749023
528,1015563198,9.718763,-2.415339,0.644882,78.633713,3.019428,15.555437,-0.792969,0.418213,-0.750977
529,1015579865,9.110314,-2.000212,0.153838,69.877251,-4.159296,15.548592,-0.790527,0.407471,-0.754395
530,1015596532,9.567070,-2.490343,-0.110631,59.887043,-9.906988,13.721788,-0.792236,0.400146,-0.755371
531,1015613199,10.300801,-3.533917,-0.275806,55.509937,-10.175212,10.876259,-0.796631,0.394287,-0.754883
532,1015629866,10.860591,-4.199386,-0.127883,58.791325,-3.573182,8.052533,-0.797119,0.385254,-0.755859
533,1015646533,10.188734,-3.857596,0.105708,64.971794,4.259027,7.096598,-0.794189,0.375000,-0.757324
534,1015663200,9.495446,-2.739898,0.698734,65.793091,8.821016,7.405290,-0.791260,0.362305,-0.762207
535,1015679867,8.676358,-2.027980,1.227713,59.701633,9.930435,7.325705,-0.792236,0.356445,-0.766602
536,1015696534,7.732325,-1.752741,1.497936,51.675781,7.136440,4.377105,-0.789795,0.347656,-0.767578
537,1015713201,7.439580,-1.915326,1.493586,44.761524,1.264220,-1.510212,-0.788330,0.336426,-0.768555
538,1015729868,7.473177,-2.122816,1.063040,40.496681,-5.964721,-6.183480,-0.787842,0.327148,-0.768555
539,1015746535,7.854007,-2.006674,0.599869,34.983444,-12.659205,-5.591319,-0.790039,0.318359,-0.767822
540,1015763202,8.599669,-2.270446,0.261216,27.667383,-13.666202,-2.049381,-0.792969,0.312988,-0.763428
541,1015779869,9.596604,-3.114149,0.005490,23.459379,-6.414188,0.542369,-0.795898,0.310791,-0.760986
542,1015796536,10.340665,-3.935222,-0.131897,25.824869,6.541493,0.577190,-0.795410,0.304932,-0.764893
543,1015813203,10.202450,-3.905625,0.074860,30.232641,17.950771,0.271746,-0.790039,0.301758,-0.770264
544,1015829870,9.089707,-3.583643,0.381275,31.825277,22.589005,0.342553,-0.788086,0.295410,-0.770264
545,1015846537,8.564729,-3.558668,0.918026,31.475695,20.088324,-0.354072,-0.781250,0.286621,-0.779297
546,1015863204,8.149171,-3.677646,1.336839,31.478748,14.739615,-1.827090,-0.780273,0.281738,-0.783203
547,1015879871,7.828212,-3.582865,1.515067,32.132572,6.970069,-4.657816,-0.780762,0.272949,-0.781250
548,1015896538,7.601903,-3.094362,1.444616,30.872831,-3.404939,-7.435418,-0.780273,0.267334,-0.783691
549,1015913205,7.674980,-2.608411,1.419922,26.776394,-15.561358,-8.699426,-0.781250,0.262939,-0.780273
550,1015929872,7.840703,-2.219097,1.403235,20.162718,-26.694614,-8.107863,-0.785889,0.256592,-0.776611
551,1015946539,7.911476,-2.156444,1.328646,13.006705,-36.502033,-7.452478,-0.790771,0.251221,-0.767822
552,1015963206,7.458998,-1.828189,1.111062,5.345485,-47.042110,-8.851437,-0.801758,0.249512,-0.757080
553,1015979873,7.123443,-1.143890,0.853034,-5.691757,-60.528843,-12.567631,-0.810547,0.247070,-0.741455
554,1015996540,7.135620,-0.649139,0.622545,-20.390331,-74.137650,-17.135551,-0.824951,0.244873,-0.725098
555,1016013207,7.996643,-0.708336,0.375051,-34.657516,-83.351295,-21.825550,-0.838867,0.243408,-0.707031
556,1016029874,8.823313,-1.153920,0.056207,-45.375404,-84.302467,-26.071585,-0.849854,0.245850,-0.685303
557,1016046541,9.267590,-1.374539,-0.259829,-52.494736,-79.692566,-28.684565,-0.867188,0.250000,-0.663818
558,1016063208,9.561885,-1.198242,-0.383558,-60.029831,-73.065742,-28.847912,-0.877686,0.248047,-0.646973
559,1016079875,9.436729,-1.264857,-0.613550,-67.748856,-66.506935,-26.536856,-0.887207,0.254639,-0.628906
560,1016096542,9.318927,-1.631619,-0.704517,-74.448509,-60.842808,-21.629257,-0.895752,0.256592,-0.615234
561,1016113209,9.011971,-2.443272,-0.875998,-76.818687,-55.130077,-17.300430,-0.905029,0.262451,-0.597900
562,1016129876,8.714079,-2.766783,-0.920225,-74.791939,-50.319748,-14.615176,-0.913574,0.270264,-0.586670
563,1016146543,7.988357,-2.675761,-1.216642,-71.969917,-48.260986,-13.383408,-0.919922,0.274170,-0.573486
564,1016163210,7.967407,-2.694532,-1.700231,-70.045662,-49.757713,-12.193122,-0.924561,0.283447,-0.559814
565,1016179877,9.633502,-3.092642,-1.830756,-66.812294,-47.577930,-10.901617,-0.933350,0.285645,-0.544922
566,1016196544,11.787946,-2.999877,-1.129789,-62.766804,-36.636681,-6.780053,-0.934570,0.289795,-0.534180
567,1016213211,15.222092,-3.573276,0.913839,-58.380360,-19.937729,-1.419283,-0.939453,0.296631,-0.526367
568,1016229878,13.840322,-3.886900,0.941379,-49.773388,-5.961433,-1.201464,-0.940918,0.302002,-0.521973
569,1016246545,9.640192,-3.031342,-0.336763,-43.708168,-7.263413,-0.506315,-0.939941,0.306396,-0.519531
570,1016263212,10.773115,-2.851649,-0.084689,-40.629539,-9.692595,-0.243527,-0.943848,0.312744,-0.519531
571,1016279879,8.016705,-2.572474,-1.501410,-34.154861,-12.297009,-3.366600,-0.942383,0.314209,-0.513672
572,1016296546,7.643096,-2.168464,-2.520504,-23.843693,-23.393816,-9.415959,-0.950684,0.314941,-0.508301
573,1016313213,9.419217,-1.283435,-2.245823,-9.319443,-29.858757,-17.783428,-0.949951,0.313721,-0.499023
574,1016329880,10.723847,-0.185772,-2.002851,5.814694,-36.528774,-25.426702,-0.952393,0.308838,-0.490967
575,1016346547,11.523065,1.225889,-2.628539,17.464033,-41.244015,-28.489750,-0.959473,0.296875,-0.479248
576,1016363214,12.570430,2.545964,-3.115029,21.957449,-37.527992,-23.488468,-0.964600,0.289062,-0.469482
577,1016379881,12.999467,3.733305,-3.147887,14.895791,-27.194075,-9.316384,-0.968750,0.280273,-0.457275
578,1016396548,12.055791,3.792688,-3.267784,-2.044318,-18.025665,7.159264,-0.969238,0.283691,-0.455811
579,1016413215,10.980170,1.953126,-3.574917,-15.638079,-11.248713,14.352108,-0.972168,0.288086,-0.449219
580,1016429882,10.052346,0.222445,-3.909885,-17.348141,-7.486927,12.367019,-0.969238,0.295410,-0.449951
581,1016446549,10.124330,-0.295746,-3.849713,-14.693969,-4.507699,9.679555,-0.968750,0.297852,-0.448975
582,1016463216,10.132264,-0.777500,-3.658401,-13.812573,-0.401275,10.209983,-0.969727,0.299805,-0.448975
583,1016479883,9.684606,-1.767050,-3.658225,-10.273954,4.757672,11.776877,-0.969971,0.305176,-0.449463
584,1016496550,8.952373,-2.566788,-3.694720,-0.474911,6.658391,11.424906,-0.968994,0.310059,-0.450928
585,1016513217,9.065518,-2.528951,-3.537080,11.101136,6.126915,10.530319,-0.971436,0.309082,-0.454346
586,1016529884,9.319731,-2.144949,-3.515782,20.042934,7.518220,9.790494,-0.968018,0.312500,-0.458740
587,1016546551,9.364771,-1.494576,-3.327400,25.809534,11.700117,9.729610,-0.966064,0.312012,-0.458740
588,1016563218,8.515702,-0.974317,-3.440738,28.132380,12.217615,9.561505,-0.965332,0.314941,-0.464600
589,1016579885,8.373403,-0.854037,-3.760091,28.464565,4.884236,8.495715,-0.963623,0.310547,-0.464600
590,1016596552,9.572257,-1.075636,-4.121940,26.861559,-3.757548,7.905504,-0.964844,0.312500,-0.466064
591,1016613219,11.375970,-1.807018,-4.275162,25.427975,-1.749326,9.209550,-0.968994,0.312012,-0.465088
592,1016629886,11.937010,-2.720465,-4.408216,26.575623,7.628556,12.008020,-0.961914,0.315430,-0.466553
593,1016646553,11.573812,-3.511252,-4.706611,33.777264,17.453674,12.694629,-0.961914,0.314453,-0.471436
594,1016663220,11.307833,-3.511151,-4.818455,43.505936,23.088228,11.337338,-0.958008,0.312500,-0.478760
595,1016679887,11.351392,-3.223697,-4.685466,50.198524,27.388556,9.547599,-0.957031,0.311035,-0.486572
596,1016696554,11.448184,-3.061996,-4.436028,54.706753,33.212833,7.325678,-0.954346,0.311523,-0.499512
597,1016713221,11.560306,-2.886485,-3.855017,58.773060,41.260391,5.275857,-0.947510,0.307129,-0.508789
598,1016729888,11.079181,-2.268573,-3.330610,60.960308,50.309296,3.080770,-0.940918,0.298340,-0.523926
599,1016746555,10.017224,-1.597744,-2.966867,59.432003,57.304501,0.489182,-0.934570,0.293701,-0.535645
600,1016763222,9.375043,-1.101109,-2.260114,54.265984,60.964931,-2.038332,-0.924072,0.286865,-0.555908
601,1016779889,8.893842,-0.983966,-1.354933,46.452385,61.686111,-3.789709,-0.920898,0.280029,-0.569092
602,1016796556,8.439932,-1.363530,-0.659691,39.064964,60.034309,-6.925953,-0.911133,0.273193,-0.586182
603,1016813223,8.420674,-1.949873,-0.036906,35.944958,57.446289,-12.295760,-0.901123,0.266846,-0.604980
604,1016829890,8.412095,-2.216034,0.352488,38.146839,55.798386,-18.968264,-0.889160,0.256836,-0.614746
605,1016846557,8.230565,-1.595289,0.515497,40.360233,53.930340,-22.766279,-0.884277,0.244873,-0.630371
606,1016863224,8.199180,-0.871584,0.771549,37.171085,51.315521,-21.169008,-0.877441,0.235596,-0.644531
607,1016879891,8.527346,-0.997782,1.225248,31.058678,45.270668,-17.333010,-0.869873,0.225098,-0.655762
608,1016896558,8.697490,-1.551001,1.141963,27.715506,35.777054,-16.152475,-0.860107,0.218262,-0.663818
609,1016913225,9.625328,-1.898944,0.995368,27.776014,28.361612,-18.431726,-0.857178,0.208984,-0.668213
610,1016929892,9.728526,-1.521711,0.712246,27.991892,28.316967,-20.361189,-0.851318,0.203125,-0.676025
611,1016946559,9.376966,-1.183070,0.666942,24.669802,31.809120,-18.398458,-0.845703,0.191895,-0.684326
612,1016963226,8.802361,-1.195110,0.723344,19.673302,32.191605,-14.382166,-0.838379,0.187012,-0.693604
613,1016979893,8.781211,-1.059626,0.918785,13.836692,27.085127,-11.668282,-0.837891,0.181641,-0.699951
614,1016996560,8.490427,-0.714660,0.846522,6.272954,20.184031,-10.969838,-0.831055,0.177979,-0.701416
615,1017013227,8.944322,-0.429870,1.120867,-2.765996,15.735332,-12.363716,-0.827148,0.174561,-0.708496
616,1017029894,8.720797,-0.005675,1.302961,-12.280037,15.697603,-16.081789,-0.818604,0.172119,-0.714844
617,1017046561,8.434501,0.601538,1.519916,-23.728067,16.627420,-20.059250,-0.820068,0.171631,-0.715332
618,1017063228,8.333028,0.571455,1.593094,-35.139343,17.575882,-24.918734,-0.818604,0.175049,-0.722168
619,1017079895,8.930128,0.151036,1.839076,-41.805759,18.130304,-31.687283,-0.812744,0.175049,-0.726562
620,1017096562,9.255039,-0.241461,1.966211,-42.168732,19.305676,-39.000015,-0.806152,0.173584,-0.731934
621,1017113229,9.039693,-0.335488,1.935366,-39.254814,19.614164,-43.315434,-0.803223,0.168945,-0.735840
622,1017129896,8.867395,-0.263113,2.006574,-36.127861,19.600065,-43.769428,-0.796875,0.168457,-0.740723
623,1017146563,8.253222,-0.015179,1.870840,-33.293602,15.868000,-42.819046,-0.792480,0.161133,-0.747559
624,1017163230,8.617577,0.164638,1.834689,-30.496351,9.878907,-41.685562,-0.790527,0.160156,-0.751221
625,1017179897,8.916444,0.143748,1.655878,-25.649549,5.725199,-41.986393,-0.787598,0.155273,-0.756104
626,1017196564,9.110083,0.402081,1.713619,-17.921642,5.279940,-43.627853,-0.785645,0.146973,-0.754150
627,1017213231,8.761380,1.200307,1.826966,-11.689905,5.726435,-44.696194,-0.780762,0.141113,-0.759521
628,1017229898,8.867188,1.880176,2.117309,-9.322563,6.707892,-43.006817,-0.780762,0.132324,-0.759521
629,1017246565,9.183072,1.998426,2.445519,-9.421543,8.252810,-38.153183,-0.774902,0.126953,-0.764404
630,1017263232,9.234482,1.685101,2.627180,-7.945605,10.602748,-32.573566,-0.773438,0.121094,-0.764893
631,1017279899,8.945629,1.345974,2.819106,-2.551636,11.716142,-29.494011,-0.769043,0.116211,-0.769287
632,1017296566,8.074284,1.634616,2.831413,5.037527,6.913523,-28.576662,-0.766113,0.105957,-0.769775
633,1017313233,8.149065,1.980106,2.762625,10.582880,-2.348742,-25.496918,-0.766602,0.100098,-0.769287
634,1017329900,8.930307,2.061913,2.639518,14.491117,-10.420487,-19.840940,-0.766113,0.094727,-0.767334
635,1017346567,9.754254,1.765413,2.686712,19.132240,-11.553304,-14.351177,-0.767578,0.086914,-0.764404
636,1017363234,9.795426,1.823371,2.876815,24.985121,-6.466814,-8.950113,-0.768799,0.081055,-0.762939
637,1017379901,8.404244,2.211700,2.722206,28.155066,-3.360191,-2.849113,-0.767334,0.072266,-0.758057
638,1017396568,7.769014,2.325091,2.566422,26.833084,-7.665390,4.175200,-0.769775,0.068359,-0.754395
639,1017413235,8.132404,1.755649,2.285690,24.195593,-14.413644,11.416239,-0.773682,0.067871,-0.752930
640,1017429902,8.991359,0.997134,2.217075,24.329649,-15.465331,17.346329,-0.779785,0.066650,-0.748535
641,1017446569,9.076001,0.484731,2.203161,25.801102,-11.890492,21.498211,-0.781250,0.067627,-0.744141
642,1017463236,8.467620,-0.020929,2.199115,27.063505,-10.141783,24.199131,-0.784668,0.067627,-0.741699
643,1017479903,8.085592,-0.423000,1.933541,28.662937,-16.465336,24.263369,-0.787598,0.065186,-0.735840
644,1017496570,8.642349,-0.616902,1.601247,31.166925,-25.010054,23.108189,-0.790771,0.067139,-0.728027
645,1017513237,9.484615,-0.703372,1.467926,35.196735,-29.498781,22.031828,-0.800049,0.066162,-0.722168
646,1017529904,10.132935,-0.817510,1.551316,40.724442,-28.273539,21.970795,-0.807373,0.068359,-0.713623
647,1017546571,10.086166,-0.600424,1.510666,46.533943,-26.027197,21.568621,-0.812500,0.062988,-0.702881
648,1017563238,9.771429,-0.039451,1.164804,48.610641,-27.333057,20.163622,-0.815918,0.058105,-0.697021
649,1017579905,9.844956,0.529431,0.702401,45.224861,-30.683714,19.251753,-0.825928,0.055420,-0.685303
650,1017596572,10.496384,0.593942,0.539968,37.913494,-29.676609,20.012978,-0.833008,0.057373,-0.675781
651,1017613239,10.897354,0.149671,0.729705,31.380983,-24.229204,20.496532,-0.837402,0.055420,-0.671875
652,1017629906,10.747644,-0.445715,0.981442,29.549919,-17.849827,18.155972,-0.840820,0.053955,-0.663574
653,1017646573,10.216429,-0.523926,1.054966,31.058678,-14.243483,14.433434,-0.845215,0.054932,-0.657715
654,1017663240,10.005618,-0.245446,1.011247,30.688885,-12.083908,14.490212,-0.845947,0.053955,-0.653809
655,1017679907,9.484781,-0.294053,0.684952,27.680309,-12.222446,17.657158,-0.848877,0.051025,-0.651367
656,1017696574,9.399718,-0.784317,0.375980,26.086906,-13.963174,20.832012,-0.852783,0.053223,-0.646484
657,1017713241,9.457562,-1.199684,0.145917,28.107622,-15.767043,21.262745,-0.858154,0.054199,-0.642578
658,1017729908,9.600109,-1.213753,-0.108160,32.173515,-16.510839,20.104673,-0.859863,0.055664,-0.630615
659,1017746575,9.748593,-1.201757,-0.169774,35.467190,-15.947471,19.796963,-0.866211,0.054199,-0.626221
660,1017763242,9.791505,-1.214439,-0.336883,39.239208,-15.426455,19.239222,-0.867676,0.055176,-0.622803
661,1017779909,10.060363,-1.274287,-0.432105,45.308594,-12.956619,17.834030,-0.873047,0.051758,-0.618896
662,1017796576,9.822823,-0.829745,-0.411437,51.939884,-8.909653,17.219046,-0.875244,0.050293,-0.611084
663,1017813243,9.637628,-0.244393,-0.117638,53.675346,-5.965653,21.080931,-0.877197,0.046387,-0.606689
664,1017829910,9.567075,-0.283927,-0.027068,53.305984,-6.400552,24.850447,-0.880127,0.049072,-0.602783
665,1017846577,9.749795,-0.323916,-0.316775,53.709171,-10.916045,26.470671,-0.884766,0.046143,-0.596436
666,1017863244,10.540181,-0.350929,-0.520582,53.949902,-16.333038,28.440031,-0.886719,0.049072,-0.589111
667,1017879911,11.733781,-0.452040,-0.534278,52.724709,-20.315937,31.605085,-0.891113,0.049072,-0.583496
668,1017896578,12.790444,-0.937557,-0.652450,52.311115,-19.237669,34.516212,-0.899658,0.054443,-0.575684
669,1017913245,13.947223,-1.694474,-0.588755,56.364998,-8.755919,36.213196,-0.901123,0.053955,-0.568359
670,1017929912,14.070028,-2.365976,-0.183237,66.303459,9.672676,37.533684,-0.904053,0.055908,-0.565918
671,1017946579,12.656350,-2.408469,0.249208,79.008118,27.124445,40.301289,-0.902100,0.056396,-0.562500
672,1017963246,10.837948,-1.810122,0.589027,90.579262,37.242588,44.694984,-0.904053,0.053955,-0.569824
673,1017979913,8.949202,-1.009895,0.782059,96.135246,38.993797,51.064484,-0.901611,0.056396,-0.573242
674,1017996580,8.076067,-0.880143,1.054424,97.096977,34.126263,55.375999,-0.896973,0.059326,-0.578125
675,1018013247,7.302186,-1.058200,0.943567,98.094521,25.962194,55.298271,-0.898926,0.061279,-0.577637
676,1018029914,8.283682,-1.364660,1.322660,100.574852,16.195147,53.939121,-0.898438,0.062744,-0.578613
677,1018046581,9.058614,-1.110610,1.511473,101.769882,5.976038,54.323452,-0.904297,0.063232,-0.575684
678,1018063248,10.255515,-0.532038,1.584974,96.755753,-4.532535,56.333092,-0.908447,0.062988,-0.569336
679,1018079915,11.457025,-0.588093,1.705209,87.110023,-8.568148,56.714420,-0.910889,0.067627,-0.562988
680,1018096582,12.473577,-1.389594,2.147412,80.358566,-3.640911,51.826069,-0.917725,0.074219,-0.556152
681,1018113249,12.652340,-1.715037,2.821504,78.203270,5.900953,42.685070,-0.915283,0.075195,-0.554688
682,1018129916,12.063325,-1.204076,3.422125,74.965424,12.509809,33.629097,-0.916260,0.074707,-0.553223
683,1018146583,11.454812,-0.723845,3.687204,67.267410,12.646441,27.157156,-0.914307,0.074951,-0.552246
684,1018163250,11.053949,-1.053562,3.904643,58.467949,10.830350,23.427229,-0.917725,0.076172,-0.550781
685,1018179917,10.809862,-1.856598,4.244962,55.000690,10.039194,20.140265,-0.917236,0.075195,-0.549316
686,1018196584,10.006743,-1.991263,4.381372,56.620930,9.122903,16.768044,-0.916992,0.071289,-0.548828
687,1018213251,9.516022,-1.506168,4.664417,58.090775,6.124452,14.200932,-0.916016,0.064941,-0.546387
688,1018229918,9.187428,-1.283803,4.894124,57.601337,1.973169,13.641665,-0.913574,0.062256,-0.544434
689,1018246585,8.594635,-1.403986,4.711385,58.130436,-3.302608,15.334818,-0.914551,0.062256,-0.538086
690,1018263252,8.648273,-1.023643,4.755718,56.580227,-7.544662,19.545090,-0.919189,0.059082,-0.531494
691,1018279919,8.815039,-0.853052,4.704017,49.474609,-6.395328,21.841043,-0.919189,0.059814,-0.530029
692,1018296586,8.350509,-1.576863,4.423890,39.879360,-5.153004,19.736729,-0.919189,0.057861,-0.525635
693,1018313253,7.916811,-2.493193,4.023331,33.537743,-5.527362,13.485310,-0.917236,0.057861,-0.519775
694,1018329920,6.838482,-2.835277,3.331130,29.284019,-9.107306,9.720188,-0.924561,0.059570,-0.515869
695,1018346587,7.009361,-3.324097,2.797071,23.229101,-14.613092,14.270568,-0.926758,0.060547,-0.508545
696,1018363254,7.172254,-4.399190,1.708659,17.692221,-21.242928,21.577261,-0.929199,0.062988,-0.506104
697,1018379921,6.811366,-5.360595,0.107629,15.283640,-30.470222,25.030514,-0.933594,0.070312,-0.493896
698,1018396588,7.281796,-5.694376,-0.893322,15.160722,-38.612579,24.129566,-0.936523,0.073730,-0.484619
699,1018413255,9.034908,-5.924698,-0.718368,14.349198,-37.864841,23.611872,-0.940674,0.078613,-0.473633
700,1018429922,10.012688,-6.243519,-0.420742,16.004807,-30.160572,21.436983,-0.948486,0.080566,-0.460938
701,1018446589,9.296570,-6.009230,-0.892139,16.849609,-17.425056,19.088474,-0.949707,0.084961,-0.456055
702,1018463256,8.969457,-6.311617,-0.690737,17.101896,-6.426393,14.964269,-0.951172,0.090332,-0.452637
703,1018479923,7.313048,-6.037217,-0.583616,18.442009,-2.744431,8.773406,-0.955078,0.092285,-0.450684
704,1018496590,6.843574,-5.842728,-0.588446,16.470951,-6.157326,6.067444,-0.952148,0.091797,-0.448730
705,1018513257,7.112270,-6.240364,-0.967866,14.915786,-11.794829,4.707127,-0.951172,0.091553,-0.445801
706,1018529924,8.109793,-6.706068,-1.412784,17.950880,-13.928134,0.438010,-0.954102,0.088379,-0.442383
707,1018546591,9.059037,-6.434232,-1.243788,24.199188,-10.590902,-4.498844,-0.955811,0.086426,-0.434570
708,1018563258,8.909945,-5.446247,-1.049806,26.761642,-2.710688,-6.117391,-0.956299,0.083496,-0.435059
709,1018579925,8.021843,-4.928561,-0.913017,24.768438,2.471330,-5.868779,-0.958252,0.079102,-0.431885
710,1018596592,7.386652,-4.961867,-0.933544,23.377481,2.051626,-6.185954,-0.957764,0.076172,-0.433594
711,1018613259,7.663537,-4.920289,-0.970476,25.095629,-5.587656,-9.290840,-0.952881,0.072266,-0.428467
712,1018629926,8.422930,-4.608969,-1.227338,28.298756,-15.499593,-14.524986,-0.953857,0.066406,-0.421143
713,1018646593,9.287800,-4.023499,-1.618263,31.061987,-20.497147,-18.816383,-0.956055,0.059570,-0.414307
714,1018663260,10.184441,-3.064696,-1.413268,31.964842,-17.011690,-21.686193,-0.958252,0.052734,-0.404541
715,1018679927,10.966203,-1.990579,-0.561457,28.289642,-5.287061,-21.843428,-0.956787,0.044434,-0.404541
716,1018696594,10.976444,-1.037969,0.232030,19.321533,8.870288,-21.029118,-0.953369,0.039062,-0.405518
717,1018713261,9.333346,-0.849557,0.225967,8.206301,16.887609,-22.164822,-0.951904,0.029297,-0.408447
718,1018729928,9.134051,-1.267035,0.497562,-0.599223,11.666351,-24.723412,-0.947998,0.024902,-0.412354
719,1018746595,10.152228,-1.622744,0.471692,-7.640969,3.309932,-26.607443,-0.946533,0.020996,-0.415771
720,1018763262,11.075311,-1.833535,0.097907,-15.157763,1.138661,-27.059320,-0.945068,0.011719,-0.413818
721,1018779929,12.123986,-2.267641,0.266276,-22.575903,10.009769,-28.742130,-0.945068,0.006348,-0.419189
722,1018796596,12.166286,-2.559960,0.805156,-28.493744,22.159725,-33.029648,-0.938721,-0.001465,-0.427002
723,1018813263,11.178270,-2.785136,0.882373,-32.632076,30.802303,-38.205544,-0.932617,-0.006104,-0.435791
724,1018829930,10.477777,-2.744061,0.997661,-34.866791,36.397022,-42.394569,-0.926758,-0.015869,-0.445801
725,1018846597,9.986352,-2.483370,1.497355,-37.073265,41.332180,-45.595295,-0.918701,-0.022705,-0.461426
726,1018863264,9.265591,-2.181921,1.879784,-39.144455,46.270256,-48.180908,-0.910889,-0.032959,-0.473145
727,1018879931,8.491579,-1.679363,2.311029,-42.838150,48.257511,-49.160679,-0.902344,-0.037842,-0.490967
728,1018896598,7.644295,-1.559216,2.470806,-47.887005,46.102081,-49.012180,-0.889160,-0.044922,-0.503174
729,1018913265,7.656747,-1.385916,2.644520,-53.216957,40.015854,-48.067104,-0.885498,-0.051025,-0.517822
730,1018929932,7.114462,-1.024505,2.547760,-60.590508,31.927927,-46.364140,-0.875732,-0.056641,-0.532959
731,1018946599,7.507601,-0.817504,2.983359,-69.738052,24.621300,-45.196587,-0.864258,-0.061523,-0.545898
732,1018963266,8.406432,-0.945050,3.991645,-78.684158,22.100130,-47.227943,-0.862061,-0.062012,-0.560547
733,1018979933,8.442507,-1.420408,4.596458,-84.105202,18.995552,-52.204399,-0.855713,-0.062012,-0.573242
734,1018996600,7.046240,-1.350750,4.239711,-85.685829,8.109701,-56.982746,-0.847168,-0.067871,-0.580078
735,1019013267,6.382542,-0.625413,3.598217,-89.872185,-10.296910,-56.606503,-0.841797,-0.069092,-0.589600
736,1019029934,6.919550,-0.540876,3.372893,-97.740211,-25.557652,-51.839355,-0.839844,-0.069580,-0.592529
737,1019046601,7.180758,-1.293563,3.142081,-102.553833,-35.810413,-49.320393,-0.835449,-0.066162,-0.593018
738,1019063268,6.663194,-1.717551,2.609233,-101.261681,-44.637093,-48.890392,-0.845703,-0.065918,-0.590576
739,1019079935,6.899965,-1.512055,2.558889,-99.756447,-52.629597,-47.598320,-0.846191,-0.059570,-0.589600
740,1019096602,7.181561,-1.356230,2.579445,-101.116119,-56.792660,-45.862106,-0.845703,-0.061768,-0.582520
741,1019113269,7.100812,-1.887768,2.135381,-103.001823,-62.307117,-45.234650,-0.850098,-0.057129,-0.579102
742,1019129936,7.957602,-3.139690,1.675805,-98.268326,-66.713173,-48.147751,-0.852295,-0.057129,-0.569824
743,1019146603,8.875452,-3.693789,1.506038,-86.132607,-69.385254,-54.972931,-0.855225,-0.058594,-0.563965
744,1019163270,8.886785,-3.437492,0.876633,-70.676445,-69.635056,-62.135441,-0.861816,-0.066895,-0.553711
745,1019179937,9.410119,-2.679529,0.630138,-55.896290,-69.689606,-64.822205,-0.865234,-0.072266,-0.542480
746,1019196604,9.565373,-1.815523,0.330063,-44.403805,-67.397736,-61.045410,-0.867920,-0.084473,-0.525635
747,1019213271,10.642446,-1.072761,0.272588,-38.180260,-66.455490,-53.312695,-0.869629,-0.093262,-0.514404
748,1019229938,11.739953,-1.015208,0.329204,-34.050022,-59.284431,-46.820030,-0.869873,-0.098145,-0.505127
749,1019246605,11.400754,-1.150470,0.202716,-26.967287,-51.559887,-44.068977,-0.872803,-0.105957,-0.490479
750,1019263272,10.882693,-0.943996,0.226757,-16.922300,-46.301441,-43.897537,-0.873047,-0.113770,-0.486328
751,1019279939,10.457747,-0.343066,0.165106,-8.182710,-43.282742,-41.586517,-0.875000,-0.124512,-0.475586
752,1019296606,11.024412,-0.023794,0.216145,-2.938705,-42.385818,-35.772839,-0.873779,-0.135742,-0.466797
753,1019313273,11.565868,-0.224856,0.073463,2.166987,-38.173569,-28.962051,-0.872559,-0.142090,-0.455566
754,1019329940,11.161134,-0.294417,-0.283586,9.618785,-32.424442,-23.649870,-0.875000,-0.145996,-0.444824
755,1019346607,10.486864,0.010961,-0.437591,16.914614,-26.914225,-20.017473,-0.876221,-0.154785,-0.438965
756,1019363274,9.531052,0.488468,-0.620661,20.761126,-25.178209,-17.120668,-0.874268,-0.159668,-0.428955
757,1019379941,9.049132,0.729448,-0.740250,20.549610,-27.331160,-14.236542,-0.879395,-0.166016,-0.417236
758,1019396608,9.246931,0.409190,-0.860285,19.030291,-30.735121,-13.765119,-0.876953,-0.170898,-0.410400
759,1019413275,9.485731,0.142478,-1.108461,19.655825,-32.192146,-16.698969,-0.877686,-0.177246,-0.402588
760,1019429942,9.428477,0.150338,-1.473630,21.516184,-33.353294,-20.929668,-0.878418,-0.180420,-0.388428
761,1019446609,9.662988,0.311709,-1.645696,24.064255,-34.036465,-24.711523,-0.879883,-0.187744,-0.379639
762,1019463276,9.772700,0.592357,-1.782244,27.331352,-32.462181,-26.314247,-0.879639,-0.199951,-0.367188
763,1019479943,9.905561,0.856405,-1.821500,30.783659,-28.651800,-24.843811,-0.876709,-0.202881,-0.354004
764,1019496610,10.125414,1.081960,-1.926345,32.783703,-24.121382,-19.840405,-0.878418,-0.214600,-0.341309
765,1019513277,10.148154,1.149414,-2.037640,33.206852,-20.840055,-13.700726,-0.876221,-0.218506,-0.333984
766,1019529944,9.938545,1.242517,-2.072179,32.639324,-20.117197,-9.352607,-0.875244,-0.221924,-0.323730
767,1019546611,10.026708,1.138864,-2.025895,31.737375,-20.106226,-6.639704,-0.873535,-0.225586,-0.314209
768,1019563278,10.273808,0.965648,-2.126811,31.222916,-19.430334,-4.594607,-0.875000,-0.227539,-0.303467
769,1019579945,10.859221,0.622161,-2.328220,32.156326,-16.477560,-4.137918,-0.875732,-0.233398,-0.294189
770,1019596612,11.035683,0.602301,-2.482177,33.847206,-11.870440,-4.481167,-0.876709,-0.234375,-0.286865
771,1019613279,10.932445,0.602258,-2.569772,35.262386,-6.508882,-4.956592,-0.877197,-0.233398,-0.282959
772,1019629946,10.731945,0.723085,-2.524886,36.635357,-1.072140,-5.008369,-0.877930,-0.238281,-0.274170
773,1019646613,10.461805,0.916726,-2.400738,36.835155,3.009360,-3.030509,-0.877930,-0.242676,-0.272705
774,1019663280,10.312982,0.832773,-2.410712,36.578506,4.869235,-0.838615,-0.876465,-0.241699,-0.267334
775,1019679947,10.591370,0.477152,-2.528140,38.729301,8.005135,0.335816,-0.875977,-0.241699,-0.260986
776,1019696614,10.816235,0.322997,-2.648886,42.554291,13.578375,2.421263,-0.874512,-0.243164,-0.263428
777,1019713281,10.895601,0.351905,-2.582248,46.345798,21.758518,7.139652,-0.875000,-0.244629,-0.259521
778,1019729948,10.555149,0.197928,-2.427429,49.360596,27.871683,13.246900,-0.879395,-0.242676,-0.260010
779,1019746615,10.912888,-0.489848,-2.526319,55.090954,31.886427,17.835556,-0.879883,-0.235840,-0.262451
780,1019763282,11.709886,-1.075518,-2.776915,65.960724,38.367733,21.489244,-0.879883,-0.236816,-0.260010
781,1019779949,12.458412,-1.257709,-2.952125,79.390572,50.636936,27.403898,-0.882324,-0.233398,-0.260010
782,1019796616,12.323962,-1.080337,-2.851628,91.328598,65.724197,35.700035,-0.886719,-0.226074,-0.264404
783,1019813283,11.659531,-0.695395,-2.523888,100.504593,77.989403,42.717731,-0.887207,-0.220215,-0.270264
784,1019829950,11.394104,-0.380476,-2.247579,107.190872,87.690132,47.322083,-0.889404,-0.209961,-0.277100
785,1019846617,11.037753,-0.324843,-2.279454,112.852150,96.115761,49.231148,-0.893799,-0.199463,-0.285889
786,1019863284,10.692689,-0.210187,-2.425323,118.692436,102.905403,48.408291,-0.895020,-0.195068,-0.293213
787,1019879951,10.059868,0.659807,-2.293930,120.076981,108.119408,47.118114,-0.895264,-0.188232,-0.308838
788,1019896618,9.589146,1.691114,-1.572391,112.849884,109.000603,45.656113,-0.894287,-0.181885,-0.320068
789,1019913285,9.103810,2.075634,-0.643443,100.281105,105.675797,42.514790,-0.892578,-0.177490,-0.332520
790,1019929952,8.214945,1.991228,0.040756,86.441582,97.555672,37.187286,-0.892334,-0.171631,-0.350098
791,1019946619,7.883815,1.319069,0.575492,74.573769,87.705482,30.848492,-0.888428,-0.169189,-0.361328
792,1019963286,8.835150,0.433288,1.036808,66.867249,83.587227,25.333542,-0.887695,-0.165039,-0.372559
793,1019979953,9.535073,-0.134553,1.624041,62.253929,84.576942,21.224007,-0.882568,-0.163574,-0.388916
794,1019996620,8.946865,-0.350746,2.236365,58.800560,83.373398,16.888645,-0.881104,-0.165039,-0.404053
795,1020013287,8.063333,-0.346100,2.565582,56.088032,75.879288,12.205129,-0.871094,-0.166748,-0.410400
796,1020029954,8.096230,-0.142398,2.712809,53.366524,67.650787,9.742491,-0.866455,-0.168213,-0.427490
797,1020046621,8.997113,-0.166172,3.282491,49.883446,63.332069,11.058189,-0.867920,-0.171875,-0.432373
798,1020063288,8.842282,-0.298285,3.694146,46.001968,57.358067,14.126317,-0.858643,-0.165771,-0.439941
799,1020079955,8.522545,-0.386761,3.765849,42.633682,46.278725,15.607744,-0.858643,-0.171143,-0.446777
800,1020096622,8.596638,-0.443475,3.404733,40.785149,36.433949,16.045765,-0.858887,-0.167725,-0.452148
801,1020113289,9.060658,-0.296609,2.973704,40.323772,32.158623,16.829813,-0.852539,-0.169678,-0.457031
802,1020129956,9.356710,0.093575,2.866151,39.296616,32.267574,18.835958,-0.853516,-0.168213,-0.456055
803,1020146623,9.636952,0.433898,3.358794,35.833076,32.261169,21.450558,-0.857422,-0.164307,-0.460449
804,1020163290,9.585105,0.670836,3.968275,29.989561,29.786093,23.346786,-0.853027,-0.165283,-0.464355
805,1020179957,8.732533,0.710085,3.546984,22.699709,23.152149,23.498100,-0.852295,-0.161377,-0.469238
806,1020196624,8.294226,0.542347,2.468231,16.252750,17.911654,23.026442,-0.853760,-0.155518,-0.471680
807,1020213291,8.574992,0.213350,2.169625,11.178134,17.700573,24.651962,-0.856201,-0.153076,-0.476562
808,1020229958,9.008344,-0.339499,2.616907,8.288131,20.538504,26.527584,-0.856689,-0.146729,-0.475098
809,1020246625,8.825200,-0.783781,3.096525,7.588915,21.951027,25.793627,-0.857422,-0.141357,-0.480957
810,1020263292,8.431207,-1.009367,3.312272,9.639176,21.265924,21.909418,-0.859375,-0.135498,-0.482422
811,1020279959,7.812128,-0.782942,3.137731,12.789065,18.981094,15.896572,-0.858887,-0.131592,-0.487549
812,1020296626,7.623212,-0.343018,2.692185,15.469750,15.769751,10.373197,-0.857422,-0.130127,-0.489502
813,1020313293,7.742183,0.147861,2.173473,16.610487,14.624221,8.179937,-0.855957,-0.129150,-0.492920
814,1020329960,8.175836,0.635602,2.147965,15.353580,14.813190,8.696865,-0.855957,-0.129150,-0.496338
815,1020346627,8.876401,0.940430,2.791225,12.528522,17.713787,11.104761,-0.854248,-0.128662,-0.497314
816,1020363294,9.002119,1.382656,3.528712,6.122730,21.106327,16.254177,-0.855225,-0.125244,-0.499756
817,1020379961,8.516887,1.327520,3.911629,-3.374356,21.591032,21.496597,-0.857666,-0.119629,-0.505615
818,1020396628,8.365251,0.628406,4.371812,-10.649223,19.357834,23.180031,-0.853516,-0.114014,-0.511963
819,1020413295,8.973339,0.034408,5.407049,-15.046861,16.068998,23.640100,-0.855957,-0.107666,-0.517822
820,1020429962,9.696780,-0.328087,6.544398,-18.879717,13.272955,23.781282,-0.857910,-0.096191,-0.521240
821,1020446629,8.832633,-0.425277,6.570614,-22.745663,8.761811,22.531853,-0.856689,-0.090820,-0.529541
822,1020463296,7.221066,-0.253901,5.647534,-27.267981,-2.077903,20.292337,-0.860107,-0.085449,-0.532471
823,1020479963,6.765302,-0.507638,4.902855,-31.231972,-15.111498,18.831678,-0.863525,-0.072754,-0.531006
824,1020496630,7.791598,-1.062144,4.972886,-32.796986,-23.317492,19.328815,-0.868408,-0.065430,-0.527588
825,1020513297,8.390833,-1.459759,5.068275,-32.993671,-25.155371,20.994816,-0.873779,-0.055176,-0.520752
826,1020529964,7.846561,-1.506167,4.584862,-33.948788,-25.872520,22.403732,-0.877686,-0.048340,-0.520752
827,1020546631,7.208101,-1.510140,3.877789,-35.794575,-28.500187,21.942644,-0.885498,-0.037598,-0.514893
828,1020563298,7.257241,-1.607950,3.508148,-37.464088,-30.510738,19.481211,-0.888428,-0.029297,-0.512451
829,1020579965,7.559745,-1.786136,3.307134,-38.730270,-28.141232,16.507986,-0.897705,-0.023193,-0.507080
830,1020596632,7.597683,-2.169325,3.156091,-38.891811,-21.719082,13.582781,-0.897217,-0.013916,-0.505127
831,1020613299,6.998093,-2.354212,3.069032,-38.050674,-16.725019,10.315984,-0.897705,-0.006836,-0.502686
832,1020629966,6.510375,-2.289300,3.136988,-38.558437,-18.331656,7.301838,-0.903076,-0.001221,-0.501709
833,1020646633,6.700639,-2.178069,3.151172,-41.831272,-25.237497,6.920706,-0.904053,0.003662,-0.497314
834,1020663300,7.037853,-2.603759,2.768760,-46.082737,-32.115566,7.295660,-0.912842,0.012939,-0.492920
835,1020679967,8.016654,-3.412173,2.664122,-45.394272,-36.114746,4.633258,-0.916748,0.014404,-0.487549
836,1020696634,8.994784,-3.740585,2.965298,-41.925842,-36.245258,1.834165,-0.917969,0.023682,-0.479492
837,1020713301,9.390727,-3.825237,3.127611,-39.222107,-37.323566,-0.225228,-0.923828,0.029053,-0.471680
838,1020729968,9.450068,-3.952085,2.750693,-37.716320,-41.551559,-1.804050,-0.923340,0.031494,-0.466309
839,1020746635,9.993795,-4.358251,2.171894,-35.401951,-45.863605,-3.638148,-0.927734,0.031494,-0.456543
840,1020763302,10.999652,-4.731734,1.960152,-30.072876,-44.624626,-5.786532,-0.935303,0.031982,-0.445801
841,1020779969,11.428056,-4.772759,1.904707,-23.179916,-38.083462,-7.180546,-0.935791,0.033936,-0.438477
842,1020796636,11.175756,-4.510547,1.944111,-16.828899,-30.786411,-6.886837,-0.939453,0.034424,-0.427979
843,1020813303,10.655677,-4.056242,1.899986,-13.274946,-25.221638,-5.315508,-0.941895,0.031494,-0.421631
844,1020829970,10.125644,-3.858341,1.843339,-11.918003,-22.743546,-3.787462,-0.945312,0.032471,-0.414795
845,1020846637,9.940013,-3.779725,1.729051,-10.631751,-20.878744,-2.908806,-0.945801,0.035400,-0.412842
846,1020863304,9.840078,-3.624295,1.786252,-9.920109,-18.738369,-3.497791,-0.945068,0.033447,-0.405518
847,1020879971,9.465423,-3.447224,1.692503,-9.903307,-17.531458,-5.643050,-0.947998,0.032471,-0.402588
848,1020896638,9.171689,-3.348788,1.486731,-10.259889,-17.981489,-8.422584,-0.949463,0.029541,-0.399658
849,1020913305,8.915242,-3.424342,1.211555,-10.211829,-19.236944,-10.969097,-0.948975,0.027588,-0.393311
850,1020929972,8.619393,-3.580512,0.829913,-8.826325,-22.009792,-13.913866,-0.947754,0.025146,-0.392334
851,1020946639,9.056852,-3.679063,0.707850,-5.624900,-24.314983,-17.704914,-0.954102,0.023193,-0.381104
852,1020963306,9.910925,-3.524674,0.876613,-1.372973,-22.351931,-21.081280,-0.954102,0.016357,-0.378418
853,1020979973,9.968400,-2.859904,0.826280,0.867345,-18.299047,-22.589838,-0.954834,0.011475,-0.370117
854,1020996640,9.654242,-2.089901,0.496029,-0.781356,-14.258868,-21.972382,-0.951904,0.006592,-0.369141
855,1021013307,9.615126,-1.589012,0.447544,-6.122010,-9.069488,-20.869932,-0.952393,0.001221,-0.366211
856,1021029974,9.612856,-1.816244,0.783520,-11.814225,-3.229550,-20.445492,-0.949463,-0.005615,-0.367188
857,1021046641,9.294700,-2.303111,1.064431,-14.167724,0.314762,-21.947868,-0.946045,-0.011475,-0.370117
858,1021063308,8.991504,-2.657174,1.086620,-14.117172,1.197608,-24.619894,-0.946045,-0.010498,-0.368652
859,1021079975,9.057944,-2.945931,1.124348,-12.507178,-0.281958,-26.153410,-0.941650,-0.023193,-0.371582
860,1021096642,9.229472,-2.973423,1.241114,-10.166595,-3.919305,-26.335299,-0.940674,-0.024658,-0.371582
861,1021113309,9.296513,-2.747087,1.337977,-8.308052,-10.594196,-24.762655,-0.939453,-0.031494,-0.365723
862,1021129976,9.015384,-2.310635,1.064176,-7.323349,-19.935070,-22.031822,-0.939453,-0.038818,-0.366211
863,1021146643,8.733850,-1.693345,0.802671,-8.660580,-30.100128,-19.743221,-0.938965,-0.044678,-0.360352
864,1021163310,8.680917,-1.166066,0.951255,-13.041275,-39.361969,-18.476406,-0.942139,-0.045654,-0.345703
865,1021179977,8.686084,-0.803808,1.300570,-20.447601,-47.753960,-17.219292,-0.944092,-0.048584,-0.338867
866,1021196644,8.253330,-0.666892,1.371235,-29.487085,-57.262608,-17.247259,-0.943848,-0.051025,-0.325195
867,1021213311,7.153225,-0.674340,0.356090,-37.605846,-70.678833,-19.450377,-0.948486,-0.052979,-0.309326
868,1021229978,8.394547,-0.785923,-0.181127,-44.069099,-83.789192,-22.593885,-0.948242,-0.060547,-0.293701
869,1021246645,9.632884,-0.946892,-0.554126,-48.405178,-85.286186,-25.701736,-0.952393,-0.065430,-0.268799
870,1021263312,10.049918,-1.090517,-0.996987,-50.450314,-78.266342,-28.364565,-0.954102,-0.069824,-0.254883
871,1021279979,10.214461,-1.238673,-1.169372,-50.490093,-65.851921,-29.584961,-0.954590,-0.077148,-0.239258
872,1021296646,9.935140,-1.302936,-1.325776,-49.938236,-53.914196,-28.261862,-0.952393,-0.081543,-0.230957
873,1021313313,10.252887,-1.530195,-1.355948,-49.096180,-46.103813,-25.251562,-0.948486,-0.084961,-0.224609
874,1021329980,10.606761,-1.930674,-1.317556,-46.311691,-41.304348,-22.412094,-0.948242,-0.091064,-0.214355
875,1021346647,10.155266,-2.470101,-1.601173,-38.428226,-39.461395,-22.398779,-0.946777,-0.100830,-0.211914
876,1021363314,9.655337,-2.464537,-1.951861,-25.895756,-40.106968,-25.291595,-0.947021,-0.102783,-0.201904
877,1021379981,10.170273,-1.621898,-1.935873,-15.188609,-37.830688,-26.259226,-0.944580,-0.110107,-0.192139
878,1021396648,11.489147,-0.917253,-1.506138,-10.936078,-29.606401,-21.973543,-0.944336,-0.115479,-0.184814
879,1021413315,11.305556,-0.633763,-1.418290,-11.326287,-19.501217,-15.861540,-0.941406,-0.118896,-0.182373
880,1021429982,10.853788,-0.652005,-1.296617,-13.806514,-13.585410,-12.445823,-0.942383,-0.125244,-0.178955
881,1021446649,10.647457,-0.945091,-0.937887,-16.761761,-10.874276,-11.710121,-0.938477,-0.128418,-0.173096
882,1021463316,10.125789,-1.513242,-0.986273,-17.547127,-12.131589,-15.599532,-0.937012,-0.131592,-0.178467
883,1021479983,9.881517,-1.947616,-1.406954,-13.898983,-16.213829,-23.656754,-0.935791,-0.138184,-0.171143
884,1021496650,10.242060,-2.024261,-1.860006,-6.730624,-16.240583,-30.489374,-0.934326,-0.144043,-0.168701
885,1021513317,10.472873,-1.563177,-2.023702,0.371917,-10.446875,-32.679173,-0.931885,-0.150879,-0.165771
886,1021529984,10.517267,-0.847902,-1.830328,3.417277,0.460345,-30.180950,-0.926514,-0.161621,-0.166260
887,1021546651,8.920783,-0.459984,-2.025476,3.551308,10.241096,-27.814981,-0.924561,-0.166504,-0.165283
888,1021563318,7.825864,-0.249643,-1.886609,3.629134,14.052554,-28.329372,-0.919189,-0.173828,-0.168701
889,1021579985,7.865311,-0.230427,-1.163548,3.097682,13.362905,-29.355310,-0.916260,-0.180176,-0.173096
890,1021596652,7.501228,-0.159146,-0.864201,2.415664,6.222827,-31.402748,-0.912354,-0.188477,-0.176025
891,1021613319,7.621864,-0.106024,-1.128797,3.403078,-5.931902,-35.223358,-0.911133,-0.196289,-0.171631
892,1021629986,8.938910,0.387275,-1.436775,7.213175,-13.249262,-38.634560,-0.906250,-0.208252,-0.166748
893,1021646653,9.751659,1.354234,-1.833663,9.876044,-13.766248,-39.021580,-0.897949,-0.214111,-0.161865
894,1021663320,10.083767,2.160354,-2.101580,9.719796,-11.513893,-36.403400,-0.898193,-0.227295,-0.155029
895,1021679987,10.611326,2.444469,-1.968845,8.344990,-6.920181,-31.681316,-0.888916,-0.234863,-0.152100
896,1021696654,10.453188,2.460609,-1.809073,6.796712,-2.850457,-25.684532,-0.889893,-0.242676,-0.149170
897,1021713321,10.052965,2.326369,-1.688469,5.559739,-3.449972,-20.091146,-0.886230,-0.247559,-0.148193
898,1021729988,9.904617,2.188268,-1.804384,6.060249,-8.557549,-17.513361,-0.883301,-0.253418,-0.143799
899,1021746655,10.467389,2.367186,-1.877278,8.209478,-12.699821,-16.578987,-0.880371,-0.256348,-0.140381
900,1021763322,10.708369,2.689301,-1.942381,9.257604,-13.721807,-13.432192,-0.879883,-0.258789,-0.134521
901,1021779989,10.481705,2.919037,-2.211934,9.312256,-12.959823,-8.744147,-0.878418,-0.258301,-0.129639
902,1021796656,10.063923,3.137558,-2.355023,7.405744,-11.288728,-1.375083,-0.874268,-0.258545,-0.124756
903,1021813323,9.674360,3.000381,-2.420656,3.042720,-10.846242,7.046115,-0.879639,-0.260254,-0.121094
904,1021829990,9.402840,2.544265,-2.650419,-0.454970,-11.962717,11.857065,-0.881104,-0.256348,-0.120117
905,1021846657,9.717397,2.199427,-2.722319,-2.245699,-10.933524,13.774559,-0.883057,-0.257812,-0.114746
906,1021863324,9.927632,1.975119,-2.619057,-3.386924,-6.107239,15.038019,-0.885498,-0.250977,-0.113281
907,1021879991,9.603674,1.918742,-2.544512,-4.335222,-2.377053,14.910310,-0.886963,-0.246094,-0.114258
908,1021896658,9.647644,2.079860,-2.497781,-5.752411,-1.198919,13.218231,-0.889404,-0.245605,-0.114258
909,1021913325,10.044832,2.279369,-2.336867,-9.021491,-0.089824,12.560420,-0.890869,-0.240234,-0.117188
910,1021929992,10.380568,2.125820,-2.126826,-14.060983,2.173913,14.704791,-0.892334,-0.235352,-0.117676
911,1021946659,10.222627,1.481530,-2.158807,-17.476221,2.559796,16.115973,-0.895508,-0.232910,-0.122070
912,1021963326,10.264528,0.827940,-2.288755,-16.929960,-0.348513,15.433722,-0.898926,-0.229004,-0.124023
913,1021979993,10.715892,0.506055,-2.356395,-13.393513,-4.029062,13.095233,-0.898926,-0.224609,-0.124512
914,1021996660,11.756118,0.576771,-2.201721,-9.016574,-5.267870,11.185913,-0.901855,-0.224121,-0.122070
915,1022013327,12.131314,0.848949,-2.216831,-4.969454,-2.247656,10.427324,-0.904785,-0.221924,-0.123535
916,1022029994,11.930517,1.169681,-2.276704,-1.634693,4.042807,11.210626,-0.903320,-0.217041,-0.124512
917,1022046661,11.082500,1.514407,-2.428298,0.454632,10.462111,12.421817,-0.903320,-0.213135,-0.127441
918,1022063328,10.454927,1.924960,-2.313261,0.774766,15.973303,14.115252,-0.910156,-0.208740,-0.130371
919,1022079995,9.832080,2.246937,-2.061758,-2.499064,21.521751,17.941969,-0.911865,-0.206299,-0.135742
920,1022096662,9.269532,2.267436,-1.803642,-7.492769,25.560444,21.103857,-0.913818,-0.202881,-0.144775
921,1022113329,8.648521,2.325220,-1.763883,-13.121695,27.791227,22.107191,-0.915771,-0.194824,-0.150635
922,1022129996,8.199104,2.243690,-1.814195,-18.837479,28.336416,21.646406,-0.920410,-0.188965,-0.164795
923,1022146663,8.093432,1.966599,-1.714404,-23.636139,28.227711,20.297829,-0.920654,-0.179199,-0.170654
924,1022163330,8.220739,1.706118,-1.534117,-27.537737,26.901340,19.095692,-0.921631,-0.179688,-0.181885
925,1022179997,8.308251,1.489825,-1.649755,-31.018526,23.601933,18.161118,-0.924805,-0.169189,-0.191162
926,1022196664,9.068600,1.022540,-1.563566,-33.579605,20.264240,17.736454,-0.926758,-0.167236,-0.202393
927,1022213331,10.387735,0.304572,-1.148822,-33.395641,19.250019,17.735056,-0.927002,-0.160889,-0.211426
928,1022229998,10.687628,0.001645,-1.048114,-30.782324,18.183853,15.128664,-0.926025,-0.156494,-0.219238
929,1022246665,11.166084,0.105084,-1.024326,-26.313187,16.587900,9.289523,-0.928223,-0.152588,-0.229004
930,1022263332,11.805273,0.585245,-0.799153,-22.747236,17.738304,7.322713,-0.931152,-0.149902,-0.236328
931,1022279999,11.336404,0.685246,-1.084728,-21.088137,17.173666,8.076009,-0.931152,-0.148926,-0.241211
932,1022296666,11.265653,0.285371,-1.681631,-16.171005,15.932492,7.895956,-0.929443,-0.145020,-0.248535
933,1022313333,11.879710,0.208236,-1.911880,-7.396134,23.494480,10.693502,-0.930420,-0.140137,-0.253906
934,1022330000,11.866237,0.494715,-1.735401,0.669909,38.364632,18.052969,-0.927246,-0.136719,-0.264160
935,1022346667,11.162532,0.416561,-1.741138,8.763009,54.612682,26.689333,-0.928223,-0.131836,-0.276611
936,1022363334,10.057608,0.544713,-1.844091,17.899084,67.464012,35.919765,-0.929932,-0.121094,-0.290771
937,1022380001,8.990026,0.801195,-1.615089,24.080515,74.440720,45.153648,-0.933594,-0.112549,-0.306885
938,1022396668,8.451880,0.550089,-1.268370,27.946175,77.420364,52.136833,-0.932373,-0.099365,-0.325928
939,1022413335,8.053105,0.197026,-0.957342,31.635525,77.962372,55.536373,-0.932617,-0.088623,-0.344238
940,1022430002,8.789567,-0.169373,-0.153534,35.248859,77.806541,54.988441,-0.932373,-0.072998,-0.363770
941,1022446669,9.162843,0.046432,0.790754,36.942234,77.007797,51.514908,-0.933594,-0.061768,-0.377441
942,1022463336,8.111523,0.388581,1.100372,33.962841,69.012955,46.491245,-0.932861,-0.052490,-0.396240
943,1022480003,8.022081,0.169862,1.184046,30.157703,56.697281,39.430634,-0.930176,-0.040771,-0.407471
944,1022496670,8.394404,0.005957,1.017211,28.033478,47.742947,32.904270,-0.933105,-0.036377,-0.415283
945,1022513337,8.280021,0.238508,0.842817,24.249298,40.561974,29.050503,-0.930420,-0.030762,-0.427979
946,1022530004,8.069758,0.187270,0.796571,17.924852,32.434902,27.081051,-0.927979,-0.024170,-0.433350
947,1022546671,8.183659,-0.521265,0.675991,12.945238,24.023489,25.316757,-0.927246,-0.017334,-0.439941
948,1022563338,8.822076,-1.536682,0.502824,14.214380,19.893431,22.925484,-0.931641,-0.012207,-0.440918
949,1022580005,9.756648,-1.883019,0.941571,19.459068,21.549099,22.038532,-0.933105,-0.009277,-0.449707
950,1022596672,9.856748,-1.540003,1.535789,22.206079,25.207355,22.924496,-0.929199,-0.007812,-0.451172
951,1022613339,8.839989,-1.291417,1.673279,20.799788,21.011452,23.860868,-0.926514,-0.004639,-0.455566
952,1022630006,9.554119,-2.089252,1.748722,19.930084,13.237701,24.697126,-0.928955,0.004395,-0.460449
953,1022646673,10.311836,-3.189370,1.397460,26.833841,10.953865,28.384649,-0.929932,0.010010,-0.458984
954,1022663340,10.851382,-3.101898,1.464818,34.703152,10.813981,36.389435,-0.932861,0.015625,-0.459473
955,1022680007,10.733918,-2.759557,1.837070,37.429546,11.145612,44.468758,-0.935791,0.024414,-0.457031
956,1022696674,10.284705,-3.229990,2.079946,38.948166,9.009761,49.805431,-0.934570,0.033936,-0.458496
957,1022713341,9.661495,-3.777056,2.085919,44.764877,4.034239,51.335629,-0.937012,0.043213,-0.457031
958,1022730008,9.627896,-4.171031,1.959088,53.465645,-0.798964,48.080132,-0.943848,0.053223,-0.458496
959,1022746675,9.959722,-4.183047,1.738870,64.883217,0.600150,42.387157,-0.942383,0.057861,-0.450195
960,1022763342,9.679241,-3.313256,1.724144,72.328743,4.862091,37.816566,-0.943848,0.062500,-0.450684
961,1022780009,8.496266,-2.424718,1.628594,71.887695,5.588950,34.025314,-0.945801,0.065674,-0.444824
962,1022796676,7.871828,-2.129097,1.614627,67.093384,0.613903,29.660397,-0.947266,0.068604,-0.442383
963,1022813343,8.223146,-2.386252,1.729285,62.657497,-5.112875,23.896803,-0.949463,0.069336,-0.438477
964,1022830010,9.546843,-2.599075,1.992300,61.398170,-4.106591,17.296995,-0.953857,0.069336,-0.433594
965,1022846677,10.249180,-1.942217,2.345652,59.288483,2.733671,10.407743,-0.951904,0.068359,-0.432617
966,1022863344,10.051003,-1.050599,2.808672,48.612106,6.859249,5.853019,-0.953369,0.068359,-0.427490
967,1022880011,9.756490,-1.784902,2.838085,37.664875,4.652615,3.386406,-0.951904,0.061523,-0.431396
968,1022896678,9.736341,-2.897917,2.558649,34.883602,-0.578184,3.193655,-0.954346,0.064941,-0.427490
969,1022913345,9.882156,-2.979264,2.320856,36.240383,-4.177323,3.681555,-0.950928,0.060059,-0.425049
970,1022930012,10.008416,-2.357071,2.243489,34.064240,-3.883682,2.766816,-0.950195,0.059814,-0.422119
971,1022946679,9.858557,-2.159646,2.003471,28.288746,0.276061,0.880176,-0.954102,0.057129,-0.418213
972,1022963346,9.375782,-2.458793,1.686099,24.011759,5.524831,-0.788489,-0.953125,0.056641,-0.419189
973,1022980013,8.566268,-2.539137,1.420967,21.430784,10.283833,-3.447834,-0.950684,0.053223,-0.420654
974,1022996680,7.897662,-2.311541,1.388879,16.904341,12.306251,-6.583499,-0.947754,0.049072,-0.423096
975,1023013347,8.047732,-2.476892,1.520997,10.434251,14.263292,-10.613395,-0.945801,0.045166,-0.426514
976,1023030014,8.580071,-3.120672,1.768240,5.003664,19.537764,-15.955172,-0.944580,0.045654,-0.429443
977,1023046681,8.660590,-3.622187,2.192198,2.327941,23.889763,-22.661291,-0.939697,0.034912,-0.437500
978,1023063348,8.603172,-3.759813,2.634978,1.131248,24.492285,-28.757536,-0.936768,0.029053,-0.440430
979,1023080015,8.420497,-3.711858,2.789174,-0.066670,21.967358,-32.800018,-0.929932,0.019287,-0.450684
980,1023096682,8.553469,-3.875325,2.785894,-0.697745,18.361963,-34.467739,-0.929443,0.012939,-0.454590
981,1023113349,8.685579,-4.037471,2.696630,0.620836,17.036972,-35.103233,-0.921143,0.000732,-0.459473
982,1023130016,8.899030,-3.734725,2.866382,1.302010,18.675804,-35.025909,-0.917725,-0.007568,-0.467285
983,1023146683,8.685650,-3.598826,3.109682,-0.332673,21.908962,-35.421722,-0.915771,-0.013916,-0.470703
984,1023163350,8.204305,-3.738374,3.286818,-1.302709,23.728462,-36.798050,-0.910400,-0.027100,-0.474609
985,1023180017,7.899320,-3.857562,3.444825,-0.133840,24.044941,-40.054390,-0.904785,-0.036865,-0.486816
986,1023196684,7.689450,-3.697791,3.459085,2.616508,24.275291,-44.535870,-0.897217,-0.049561,-0.485352
987,1023213351,7.351378,-3.055735,3.471762,3.339308,24.458340,-46.898403,-0.888184,-0.059326,-0.497314
988,1023230018,7.128204,-2.651997,3.476498,1.545030,23.562414,-46.053951,-0.883301,-0.071777,-0.501709
989,1023246685,6.522209,-3.363264,3.321694,2.342473,21.063866,-42.737114,-0.876953,-0.083008,-0.505615
990,1023263352,6.537013,-4.278075,3.412446,11.614651,17.123365,-38.900986,-0.869629,-0.089844,-0.512451
991,1023280019,6.786423,-4.102301,3.748352,23.061090,14.426250,-33.971565,-0.863281,-0.102051,-0.510986
992,1023296686,7.112036,-3.673616,4.299594,30.448090,12.008356,-27.967783,-0.859619,-0.111328,-0.510498
993,1023313353,7.094562,-3.454939,4.695992,35.866810,7.850315,-23.999216,-0.857178,-0.122559,-0.510010
994,1023330020,7.167972,-3.160271,4.905375,40.658989,0.652981,-21.080698,-0.851807,-0.130615,-0.507080
995,1023346687,7.649703,-2.884904,4.960337,44.010834,-8.035128,-17.634768,-0.851318,-0.139893,-0.501221
996,1023363354,8.128016,-3.029428,4.481270,49.895885,-19.166628,-15.283854,-0.854492,-0.147217,-0.489502
997,1023380021,9.119617,-2.825821,3.646749,58.178925,-31.660854,-9.966007,-0.853760,-0.155518,-0.474609
998,1023396688,10.486224,-2.184123,3.189193,64.441116,-35.299591,-1.530285,-0.856934,-0.163818,-0.460449
999,1023413355,11.380342,-2.017596,3.446604,67.406425,-24.646000,4.239408,-0.860107,-0.168213,-0.446777
1000,1023430022,10.768872,-2.077705,3.651177,73.638298,-10.886366,1.898239,-0.863525,-0.174072,-0.431152
1001,1023446689,9.421993,-1.512354,3.332898,80.185806,-4.276381,-0.985535,-0.863281,-0.180420,-0.423584
1002,1023463356,8.161636,-0.914603,2.683118,82.744621,-6.246986,-0.067299,-0.864502,-0.190674,-0.411377
1003,1023480023,8.296929,-0.709314,2.573679,83.840775,-10.185465,2.169213,-0.863525,-0.192627,-0.393311
1004,1023496690,8.639984,-0.230783,2.598507,83.587791,-13.087230,4.768738,-0.864258,-0.196533,-0.382080
1005,1023513357,9.050503,0.216583,2.598637,79.665504,-16.815365,8.955891,-0.866455,-0.205322,-0.368652
1006,1023530024,9.611386,0.154176,2.543256,73.335999,-18.585155,14.465349,-0.865479,-0.202637,-0.352051
1007,1023546691,10.017369,-0.363048,2.451353,68.612411,-17.414917,18.920492,-0.873535,-0.202393,-0.342773
1008,1023563358,10.581652,-0.907858,2.422811,66.588501,-13.925003,20.661999,-0.876221,-0.199707,-0.325684
1009,1023580025,10.747821,-1.052125,2.323839,65.631531,-9.420854,19.603142,-0.881104,-0.200195,-0.313721
1010,1023596692,11.071237,-1.058024,2.323122,63.845570,-4.655539,17.328690,-0.881836,-0.198242,-0.304932
1011,1023613359,11.390947,-1.079560,2.539548,63.282009,2.097846,14.250600,-0.885742,-0.197266,-0.296631
1012,1023630026,11.130689,-0.799769,2.702046,63.902267,10.039529,11.696197,-0.886719,-0.195801,-0.292236
1013,1023646693,10.776087,-0.329112,3.113534,63.664387,16.785286,10.011797,-0.887207,-0.196777,-0.284424
1014,1023663360,10.063459,0.176670,3.380602,60.102974,20.352407,9.813681,-0.889160,-0.197754,-0.284912
1015,1023680027,9.257206,0.345345,3.062605,53.891121,20.221466,10.475830,-0.890381,-0.195801,-0.280029
1016,1023696694,8.523609,0.197927,2.356354,47.708035,19.510584,11.752164,-0.888916,-0.194824,-0.282471
1017,1023713361,8.710989,-0.185020,2.382712,44.347088,22.921791,12.508840,-0.890869,-0.193848,-0.280029
1018,1023730028,8.802084,-0.344410,3.157663,44.037373,30.011951,11.886269,-0.891846,-0.191895,-0.281494
1019,1023746695,8.766329,-0.354634,4.450573,44.591518,34.623798,9.185208,-0.891113,-0.192383,-0.283447
1020,1023763362,8.722281,0.074316,5.793157,44.633255,31.475824,5.249884,-0.892578,-0.190674,-0.286865
1021,1023780029,8.727359,0.965937,6.061651,40.122192,20.068047,3.568304,-0.890625,-0.195068,-0.286865
1022,1023796696,9.237646,1.575716,5.574476,31.102917,7.954700,7.207639,-0.890137,-0.191406,-0.286865
1023,1023813363,10.178259,1.506330,5.130668,22.281225,4.616904,15.324588,-0.893555,-0.189697,-0.282959
1024,1023830030,10.070770,1.311859,4.543619,14.705279,9.610103,25.972294,-0.894043,-0.185303,-0.281982
1025,1023846697,9.353941,1.058245,4.108327,6.300278,17.666552,35.148800,-0.895508,-0.177002,-0.287354
1026,1023863364,8.519881,0.344023,4.201440,-1.426817,24.973675,38.418034,-0.902344,-0.168701,-0.294189
1027,1023880031,7.276946,-0.082173,4.365358,-7.316026,27.080393,35.922756,-0.905029,-0.159912,-0.298584
1028,1023896698,6.467312,-0.366373,4.483008,-12.840170,23.894554,30.396517,-0.907471,-0.150146,-0.308350
1029,1023913365,6.037076,-0.636965,4.601156,-18.246065,17.630737,23.712013,-0.908203,-0.143799,-0.311768
1030,1023930032,5.872838,-0.881132,4.693908,-23.192451,8.983307,18.062141,-0.916016,-0.135742,-0.321045
1031,1023946699,5.883372,-0.962293,4.790832,-28.430609,-1.115693,14.769559,-0.913574,-0.131836,-0.322021
1032,1023963366,6.131104,-1.167439,4.915399,-34.087685,-10.217664,14.540807,-0.916260,-0.125488,-0.326660
1033,1023980033,6.233067,-1.785690,4.807393,-38.647503,-18.076256,15.271436,-0.921143,-0.120117,-0.322998
1034,1023996700,6.794334,-2.628522,4.817268,-38.623581,-25.333961,15.607401,-0.920166,-0.113770,-0.321533
1035,1024013367,7.703365,-2.941285,5.006721,-36.399822,-30.635069,15.972355,-0.927490,-0.106934,-0.318115
1036,1024030034,8.113453,-2.866806,5.022871,-35.782188,-34.924755,16.944345,-0.928467,-0.099121,-0.315674
1037,1024046701,7.915211,-2.230394,4.657818,-40.680584,-41.693298,18.598579,-0.935547,-0.097168,-0.309814
1038,1024063368,8.161813,-2.175593,4.258873,-50.757938,-49.756630,18.392092,-0.938965,-0.089844,-0.301514
1039,1024080035,8.490561,-3.333779,3.762020,-57.082325,-54.134731,11.872819,-0.941895,-0.082520,-0.289795
1040,1024096702,8.975444,-4.365928,3.501124,-54.779659,-54.384766,-0.077262,-0.947021,-0.079590,-0.280029
1041,1024113369,9.267282,-3.926288,3.481946,-53.430244,-51.165115,-11.009502,-0.947510,-0.082031,-0.276611
1042,1024130036,9.103408,-3.446043,3.307960,-57.725708,-47.798450,-18.358429,-0.946533,-0.082031,-0.265625
1043,1024146703,8.749524,-3.221303,2.954071,-65.859009,-47.212734,-21.833960,-0.949219,-0.088379,-0.259277
1044,1024163370,8.526908,-3.361267,2.452233,-75.714973,-50.939754,-22.378887,-0.950195,-0.091797,-0.256836
1045,1024180037,9.124230,-4.921102,1.858213,-79.620522,-55.039429,-24.493145,-0.950684,-0.095215,-0.249512
1046,1024196704,10.241317,-6.952415,1.267781,-67.139030,-52.872036,-28.212017,-0.945068,-0.100586,-0.241211
1047,1024213371,11.279556,-7.366917,0.897246,-45.216225,-43.240982,-25.778521,-0.944580,-0.104492,-0.235840
1048,1024230038,11.603399,-6.630539,0.775535,-25.659019,-29.733324,-17.114544,-0.943848,-0.109863,-0.228027
1049,1024246705,10.948959,-5.747361,0.561681,-12.865760,-19.356403,-7.185773,-0.943848,-0.110840,-0.225098
1050,1024263372,10.537945,-5.311037,0.481083,-3.548821,-13.122957,-0.443036,-0.943848,-0.112305,-0.224609
1051,1024280039,10.318639,-4.903278,0.635786,4.131913,-8.249739,2.054555,-0.947266,-0.111816,-0.219238
1052,1024296706,9.910254,-4.404739,0.798118,9.181880,-5.645995,0.693365,-0.945801,-0.112305,-0.217285
1053,1024313373,9.806862,-3.694592,0.854825,10.931974,-5.335487,-3.616976,-0.945801,-0.115234,-0.215820
1054,1024330040,10.191689,-2.880384,0.970839,7.921878,-3.788684,-9.444510,-0.945312,-0.111084,-0.212402
1055,1024346707,10.480685,-2.261794,1.056488,0.511339,1.373681,-16.429579,-0.942383,-0.117920,-0.213379
1056,1024363374,9.963047,-2.338984,0.772317,-8.505551,6.624147,-25.050785,-0.941406,-0.124756,-0.216797
1057,1024380041,9.770180,-3.170012,0.580857,-11.725634,9.448608,-35.631783,-0.935059,-0.134521,-0.222168
1058,1024396708,9.954901,-2.969157,0.595055,-11.059631,12.890065,-45.982960,-0.932129,-0.145264,-0.225098
1059,1024413375,10.271766,-1.997797,0.554398,-15.829216,17.748880,-54.334789,-0.925293,-0.156982,-0.230469
1060,1024430042,10.422941,-1.973131,0.653194,-22.489735,24.226452,-60.573849,-0.915039,-0.177490,-0.238770
1061,1024446709,10.362312,-2.226728,0.821761,-24.932169,29.821081,-63.771549,-0.908691,-0.189697,-0.251953
1062,1024463376,10.116660,-1.941594,0.957731,-25.060041,33.535042,-64.034470,-0.898926,-0.203857,-0.262207
1063,1024480043,10.134922,-1.539551,1.051018,-27.792049,35.939949,-63.176369,-0.887451,-0.219238,-0.275635
1064,1024496710,10.350506,-1.774215,1.241952,-28.825434,37.884480,-59.955402,-0.875244,-0.232910,-0.290283
1065,1024513377,10.050110,-1.842473,1.277728,-25.734179,37.094975,-54.686497,-0.866455,-0.246094,-0.303467
1066,1024530044,10.150968,-1.327174,1.266255,-22.734406,35.021988,-48.671520,-0.855957,-0.258789,-0.315918
1067,1024546711,10.467587,-0.830742,1.324061,-23.326164,35.498226,-42.065331,-0.850586,-0.268066,-0.327148
1068,1024563378,10.641928,-0.408881,1.379184,-26.492426,39.089733,-36.016167,-0.842041,-0.274658,-0.339355
1069,1024580045,10.398086,-0.248166,1.530688,-30.873087,42.795414,-32.706635,-0.831055,-0.279541,-0.359863
1070,1024596712,10.062223,-0.068488,1.777251,-34.868504,44.868362,-29.798935,-0.825684,-0.282471,-0.374756
1071,1024613379,10.190670,1.070798,1.896727,-44.013943,48.901707,-28.280542,-0.815186,-0.285400,-0.391846
1072,1024630046,9.984531,1.692710,2.028079,-59.668777,53.943699,-30.609924,-0.808105,-0.286865,-0.410889
1073,1024646713,9.567828,1.084727,2.356414,-73.330650,57.077011,-35.403873,-0.796143,-0.288330,-0.438477
1074,1024663380,9.074519,0.335421,2.795481,-80.713547,57.367252,-40.251854,-0.784668,-0.290039,-0.465332
1075,1024680047,8.155369,0.310069,2.953688,-84.867012,53.077389,-42.791393,-0.771729,-0.294434,-0.489014
1076,1024696714,7.865967,0.097438,3.108699,-87.575706,46.644558,-42.506134,-0.760010,-0.294434,-0.518066
1077,1024713381,7.807314,-0.587903,3.282990,-85.007416,40.836426,-40.628613,-0.748535,-0.291260,-0.537109
1078,1024730048,7.772085,-0.848599,3.467867,-77.051117,35.382641,-37.083851,-0.741455,-0.291260,-0.557129
1079,1024746715,8.238384,-0.407105,3.810433,-69.158607,31.783442,-34.323254,-0.732422,-0.290283,-0.574463
1080,1024763382,8.477470,0.179979,4.149177,-63.360516,29.100298,-32.133209,-0.722168,-0.287354,-0.592529
1081,1024780049,8.291446,0.066229,4.328028,-56.912563,25.092714,-29.953106,-0.712646,-0.285156,-0.606689
1082,1024796716,8.134675,-0.016144,4.423346,-47.918140,19.667210,-27.177460,-0.704590,-0.283203,-0.621582
1083,1024813383,8.339441,0.216492,4.569569,-39.402206,15.390548,-23.330927,-0.697266,-0.280762,-0.629395
1084,1024830050,8.911697,1.083939,4.863800,-35.780697,14.626399,-18.674519,-0.692627,-0.279785,-0.638672
1085,1024846717,9.169982,1.839197,5.128366,-39.620499,16.525774,-14.518588,-0.687256,-0.278809,-0.649414
1086,1024863384,8.937267,1.581134,5.349590,-47.204895,16.926331,-13.197748,-0.682129,-0.274658,-0.657471
1087,1024880051,8.405022,0.595154,5.458728,-50.006702,13.000623,-17.707792,-0.676025,-0.267334,-0.666748
1088,1024896718,7.995401,0.407699,5.357297,-47.527016,5.372580,-23.836069,-0.671631,-0.264404,-0.678955
1089,1024913385,8.076972,1.016051,5.123893,-46.852665,-2.352614,-26.895260,-0.666016,-0.260498,-0.683838
1090,1024930052,8.341515,1.210473,4.905764,-48.509682,-7.765971,-26.876829,-0.663574,-0.257080,-0.695068
1091,1024946719,8.367603,0.981228,4.701006,-49.962112,-11.645216,-25.695967,-0.663574,-0.255127,-0.700195
1092,1024963386,8.280254,0.425228,4.568918,-48.614902,-15.450267,-24.996590,-0.661621,-0.254639,-0.702637
1093,1024980053,8.111760,0.181996,4.398598,-43.737370,-19.187304,-23.409727,-0.658447,-0.250488,-0.710938
1094,1024996720,8.296650,0.544999,4.086206,-39.776268,-21.605227,-19.704748,-0.658936,-0.248535,-0.708008
1095,1025013387,8.419150,0.893151,3.750874,-38.561623,-21.541574,-13.941667,-0.663330,-0.242432,-0.712402
1096,1025030054,8.448427,0.532430,3.573569,-38.405155,-19.985889,-7.108506,-0.663818,-0.236084,-0.715332
1097,1025046721,8.182430,-0.337820,3.542700,-34.438293,-19.377790,-1.714818,-0.668457,-0.231689,-0.717285
1098,1025063388,8.119283,-0.697072,3.578952,-26.638874,-20.573481,1.466083,-0.671387,-0.223877,-0.718262
1099,1025080055,8.537717,-0.352232,3.805008,-19.979132,-21.482100,3.736334,-0.674805,-0.224365,-0.715332
1100,1025096722,8.958611,-0.122601,4.053364,-16.617691,-20.963923,5.966167,-0.679688,-0.217529,-0.714355
1101,1025113389,8.881472,-0.186034,4.063329,-12.928487,-20.916594,6.358630,-0.683105,-0.211426,-0.710938
1102,1025130056,8.875193,-0.213562,4.155398,-8.667743,-22.719784,6.207220,-0.685059,-0.209961,-0.708984
1103,1025146723,8.966521,-0.024083,4.312444,-5.209111,-25.444078,6.798606,-0.694580,-0.208496,-0.706299
1104,1025163390,9.068195,0.171532,4.229824,-3.996822,-28.320023,7.971509,-0.698486,-0.203613,-0.702393
1105,1025180057,9.273364,-0.089652,4.088296,-3.659594,-29.995634,9.097989,-0.704834,-0.201172,-0.693604
1106,1025196724,9.358040,-0.823111,3.966664,0.204909,-31.404463,9.232432,-0.709717,-0.200928,-0.689697
1107,1025213391,9.142921,-2.136222,3.714938,11.482554,-33.840546,8.877718,-0.716309,-0.197021,-0.680908
1108,1025230058,8.702991,-3.344703,3.241925,33.433342,-38.137012,10.440161,-0.724121,-0.201904,-0.669189
1109,1025246725,8.377642,-3.207884,2.610022,60.009853,-42.103329,18.316975,-0.733643,-0.206543,-0.653809
1110,1025263392,8.170296,-2.563945,2.052050,81.717476,-43.653866,32.883007,-0.745117,-0.210938,-0.634277
1111,1025280059,8.063712,-2.625822,1.632017,101.728279,-43.516422,47.106113,-0.758789,-0.216553,-0.611084
1112,1025296726,7.934179,-2.851087,1.322627,122.746918,-44.330669,58.329357,-0.768311,-0.216553,-0.585205
1113,1025313393,8.352417,-3.263986,1.002309,146.636642,-45.529465,67.285866,-0.785645,-0.222412,-0.556641
1114,1025330060,9.179111,-2.841378,0.674875,172.293228,-44.539959,77.439888,-0.803223,-0.226074,-0.523193
1115,1025346727,9.431633,-1.663450,0.307368,191.137817,-44.797626,88.011017,-0.819336,-0.223145,-0.484131
1116,1025363394,9.577210,-0.894554,-0.005468,200.782852,-47.547104,94.732986,-0.839111,-0.220459,-0.449219
1117,1025380061,10.313605,-0.695740,-0.077562,204.999512,-48.631882,98.344383,-0.857178,-0.213623,-0.404541
1118,1025396728,11.031938,-0.575817,-0.072999,205.947388,-44.558228,99.283165,-0.873291,-0.206299,-0.367676
1119,1025413395,11.031964,-0.509965,-0.081399,205.148193,-39.340710,99.672821,-0.888184,-0.193115,-0.331055
1120,1025430062,11.190108,-0.773538,0.105711,204.993423,-36.521290,100.722931,-0.907227,-0.178467,-0.295166
1121,1025446729,11.508142,-0.427057,0.578779,202.910110,-34.993843,102.033073,-0.919189,-0.159424,-0.259277
1122,1025463396,11.787381,-0.091974,1.013877,195.399063,-34.532814,101.684151,-0.932129,-0.136475,-0.227539
1123,1025480063,12.190951,0.007163,1.115313,184.815674,-32.288872,97.645195,-0.944092,-0.114014,-0.194580
1124,1025496730,12.452581,-0.049253,0.934255,175.145889,-26.190472,91.208801,-0.957520,-0.090576,-0.171631
1125,1025513397,12.078574,0.113827,0.791992,164.749176,-18.789503,84.640564,-0.962891,-0.071533,-0.150146
1126,1025530064,11.363998,0.290554,0.750645,152.225937,-13.050793,77.803665,-0.973877,-0.049072,-0.130859
1127,1025546731,10.658435,0.410983,0.731056,137.175598,-9.008245,70.689095,-0.981201,-0.025635,-0.120605
1128,1025563398,10.177640,-0.150404,0.623198,123.056717,-5.467514,62.508827,-0.984131,-0.008301,-0.105957
1129,1025580065,10.326141,-1.021235,0.705349,114.711456,0.756802,53.890968,-0.989502,0.005371,-0.096680
1130,1025596732,9.885857,-0.961016,0.682044,109.721237,7.513010,46.068279,-0.992432,0.022949,-0.092285
1131,1025613399,9.034351,-0.429789,0.658358,102.037895,10.723465,40.340271,-0.992920,0.038086,-0.087891
1132,1025630066,8.863180,-0.267171,0.909681,90.832764,11.023036,35.473248,-0.997803,0.052246,-0.086426
1133,1025646733,9.171853,-0.897085,1.203331,82.934982,11.721169,31.087528,-1.002197,0.062012,-0.084961
1134,1025663400,9.612556,-1.275584,1.417758,79.262970,13.518472,30.548954,-0.999512,0.073730,-0.083984
1135,1025680067,9.270616,-1.217468,1.385006,75.817467,15.344894,33.412437,-1.002930,0.082520,-0.088867
1136,1025696734,8.809224,-1.696656,1.445251,73.152008,14.716015,37.184727,-1.003906,0.093262,-0.085449
1137,1025713401,8.621265,-2.550166,1.641859,75.237671,11.852735,40.555553,-1.005859,0.106934,-0.088379
1138,1025730068,8.984715,-3.163732,2.065741,81.914276,8.363502,44.349274,-1.009033,0.120117,-0.086426
1139,1025746735,9.536611,-3.829307,2.637205,92.699066,6.288899,49.383682,-1.011963,0.137695,-0.084473
1140,1025763402,9.494720,-3.782429,3.009006,105.258369,3.584131,55.060009,-1.013428,0.155273,-0.083984
1141,1025780069,9.097548,-3.581300,3.057405,115.207741,-3.384398,61.400852,-1.011475,0.175537,-0.082031
1142,1025796736,9.102038,-3.538952,2.980551,124.535973,-12.426377,66.117149,-1.013672,0.197998,-0.074707
1143,1025813403,9.214236,-3.170428,2.832533,130.494003,-21.750669,69.423790,-1.012207,0.216309,-0.067383
1144,1025830070,9.383162,-3.103143,2.637627,133.373596,-28.226664,71.306297,-1.012207,0.241699,-0.059570
1145,1025846737,9.333641,-3.387383,2.353985,137.170410,-31.029150,71.163757,-1.011719,0.268799,-0.053223
1146,1025863404,9.094120,-3.134465,1.937578,140.491425,-31.587978,68.790230,-1.009766,0.292236,-0.046875
1147,1025880071,8.957275,-2.914407,1.664327,142.054047,-29.403494,63.564728,-1.010986,0.316162,-0.039062
1148,1025896738,8.615990,-2.444780,1.504590,142.025177,-26.398188,56.709351,-1.006592,0.336426,-0.031250
1149,1025913405,8.526828,-1.358840,1.737424,137.759323,-24.902262,48.690273,-1.003662,0.353271,-0.030273
1150,1025930072,8.215560,-0.136699,1.890529,124.638512,-24.965076,41.054920,-1.002197,0.371826,-0.026855
1151,1025946739,8.161118,-0.066919,2.028831,107.718475,-26.093050,32.693325,-1.001709,0.385010,-0.025391
1152,1025963406,8.751736,-0.318348,2.427496,93.779633,-25.813898,22.996883,-1.001465,0.397217,-0.023926
1153,1025980073,9.056136,-0.008800,2.699144,80.351082,-24.645557,15.934525,-0.996582,0.400879,-0.021484
1154,1025996740,9.232960,-0.070900,2.632282,67.443008,-24.692408,11.183705,-0.993652,0.407715,-0.014160
1155,1026013407,9.443164,-0.433322,2.433116,56.029667,-24.092819,7.888260,-0.994141,0.411133,-0.014160
1156,1026030074,9.854704,-0.821468,2.449000,48.066444,-20.563982,4.708511,-0.988770,0.417236,-0.008301
1157,1026046741,9.998507,-0.732612,2.594533,42.163105,-14.730159,1.815780,-0.991699,0.420166,-0.011230
1158,1026063408,9.643232,-0.485888,2.700071,36.191959,-10.373298,-0.421062,-0.991211,0.421143,-0.006836
1159,1026080075,9.414478,-0.511423,2.727490,30.693621,-10.602941,-1.819251,-0.992432,0.420654,-0.006348
